velocity,altitude,accel_x,accel_y,accel_z,temperature,pressure,latitude,longitude,sinyal_gücü,paket_no,paket_kaybi,vertical_velocity,gyro_x,gyro_y,gyro_z,timestamp
0.5,15.4,3.18,1.8,-10.06,-0.8,1011.0,39.905308,32.80492,-86.3,1,1.6,-1.2,-0.32,3.66,5.85,14:49:29.323
1.8,27.9,3.28,0.66,-10.1,-2.0,1009.4,39.905308,32.80488,-93.5,2,0.8,2.0,-3.09,-2.66,2.19,14:49:29.425
2.1,51.6,-1.22,-0.11,-10.0,-2.0,1007.1,39.905304,32.8049,-102.0,3,0.8,0.8,-0.43,-5.44,3.67,14:49:29.526
5.0,59.9,2.59,6.51,-10.9,-2.3,1006.1,39.905297,32.804891,-101.3,4,1.9,4.4,-0.4,2.62,-3.63,14:49:29.626
3.7,55.8,-1.85,-6.78,-11.77,-1.9,1006.3,39.90525,32.804914,-104.1,5,0.4,5.7,-0.1,-5.88,-0.48,14:49:29.727
7.7,80.5,0.08,-1.4,-10.49,-2.0,1004.2,39.905311,32.804928,-103.4,6,0.8,6.0,-13.75,-2.26,-7.44,14:49:29.828
8.3,109.9,-2.88,3.42,-8.6,-2.2,1000.4,39.905334,32.804928,-85.5,7,1.5,8.3,2.04,6.8,1.27,14:49:29.929
5.5,104.3,1.76,-1.21,-9.04,-2.3,1001.0,39.90532,32.804921,-97.0,7,1.4,6.1,2.87,1.44,6.83,14:49:30.029
7.6,113.0,-0.04,-1.71,-9.74,-2.0,1000.0,39.905315,32.804893,-102.5,9,0.1,6.9,-6.89,-7.67,3.23,14:49:30.130
6.2,139.8,-0.47,-4.22,-7.91,-2.6,996.4,39.905331,32.804893,-89.3,9,0.3,5.6,0.05,4.57,-4.23,14:49:30.231
7.0,153.6,-1.08,-2.48,-10.76,-2.4,995.3,39.905312,32.804928,-104.2,10,0.0,7.9,-11.46,-1.07,-7.02,14:49:30.332
11.9,171.4,2.39,1.14,-9.28,-2.4,993.4,39.90531,32.804909,-93.7,12,1.3,11.9,-4.97,-4.72,-9.75,14:49:30.433
11.5,171.6,-0.65,2.82,-10.83,-2.9,992.7,39.90531,32.804909,-98.9,13,1.9,10.5,-3.64,1.73,3.84,14:49:30.535
13.1,202.5,1.62,-0.49,-7.6,-2.5,990.4,39.905294,32.804883,-89.5,14,1.5,14.3,15.42,-4.64,9.52,14:49:30.635
11.2,207.3,-4.27,-0.69,-9.48,-2.6,989.0,39.905303,32.804923,-100.1,15,1.2,10.9,-3.23,3.45,-5.46,14:49:30.736
13.5,213.0,0.1,-1.69,-8.48,-2.7,987.7,39.905339,32.804947,-97.9,16,1.7,13.7,-2.46,1.2,-7.58,14:49:30.837
13.5,234.7,-4.23,0.13,-6.56,-2.9,985.9,39.905297,32.804921,-96.3,17,1.0,12.7,1.41,-7.02,-2.43,14:49:30.939
18.7,257.4,-1.25,-0.72,-10.01,-2.9,983.2,39.905305,32.804897,-103.5,18,1.8,19.3,2.78,0.47,3.52,14:49:31.040
18.8,253.5,-2.42,0.09,-11.09,-3.2,984.0,39.905342,32.804915,-95.9,19,0.0,17.5,8.13,-6.92,3.53,14:49:31.141
17.9,271.5,0.37,1.55,-9.0,-3.2,980.3,39.905344,32.804945,-101.6,20,0.4,16.6,-7.31,4.06,-12.83,14:49:31.241
19.1,287.2,1.81,-0.3,-10.84,-3.6,979.6,39.905284,32.804926,-89.3,21,0.6,18.7,1.72,3.2,1.56,14:49:31.342
18.1,313.3,1.88,-0.44,-12.25,-3.0,976.8,39.90532,32.804912,-85.4,22,1.3,18.4,9.21,1.28,-2.23,14:49:31.442
20.5,320.8,-3.04,2.01,-12.05,-3.3,974.6,39.905296,32.80493,-100.4,23,1.7,19.8,-8.72,-2.45,1.26,14:49:31.543
20.3,330.3,-0.46,-0.59,-9.74,-4.0,973.4,39.905334,32.804915,-86.8,24,0.9,21.0,1.25,-1.14,0.13,14:49:31.644
20.2,351.2,1.84,-1.95,-8.83,-3.2,971.9,39.905315,32.804898,-85.6,25,1.7,20.4,2.64,-7.13,-9.12,14:49:31.745
23.6,364.1,-4.48,0.43,-10.16,-3.2,970.8,39.905369,32.804905,-92.9,26,1.7,23.9,2.29,-0.8,2.28,14:49:31.846
25.7,354.5,-4.73,5.15,-9.82,-3.9,972.2,39.905341,32.804943,-87.7,27,1.1,28.4,-0.79,-1.57,-2.78,14:49:31.946
24.6,394.3,1.39,4.26,-10.64,-4.4,966.9,39.905331,32.804929,-90.2,28,1.9,21.9,4.5,7.99,0.06,14:49:32.047
27.3,416.4,2.27,-1.6,-8.56,-4.2,965.4,39.905331,32.804956,-100.9,29,0.9,27.2,-7.18,-2.94,-9.73,14:49:32.148
25.9,413.4,3.5,2.84,-9.78,-3.5,964.9,39.90533,32.804922,-103.0,30,1.9,26.0,-4.35,-6.01,4.41,14:49:32.249
28.3,426.6,0.21,7.79,-8.14,-4.0,963.9,39.905315,32.804931,-104.3,31,1.4,29.5,-0.68,11.47,1.99,14:49:32.349
30.1,450.1,4.02,2.53,-11.41,-4.4,961.2,39.905317,32.804941,-101.0,32,1.7,30.6,2.3,1.12,-9.59,14:49:32.450
29.1,461.4,-3.38,-6.85,-10.57,-4.3,960.3,39.905328,32.804945,-91.5,33,0.3,29.1,3.26,2.24,-0.76,14:49:32.551
27.8,491.1,-0.15,-0.64,-7.66,-4.8,956.2,39.905356,32.804934,-89.7,34,1.4,28.7,-4.04,-2.19,-2.19,14:49:32.651
31.0,494.5,-1.66,-1.78,-9.55,-4.2,956.0,39.905343,32.804938,-91.0,35,1.9,32.5,-5.97,-1.12,-1.87,14:49:32.752
32.7,516.7,-2.44,1.32,-9.51,-4.7,953.9,39.9053,32.804901,-89.6,36,1.1,31.7,-5.34,4.6,-4.0,14:49:32.853
34.0,502.3,1.69,-2.24,-9.46,-4.6,954.0,39.90529,32.804959,-100.7,37,1.4,32.6,1.91,4.46,-4.96,14:49:32.954
36.4,540.5,-2.49,-0.8,-7.62,-4.6,950.5,39.905373,32.804946,-89.9,38,0.9,38.6,-7.01,-5.14,3.17,14:49:33.055
38.5,548.7,2.4,1.59,-11.5,-5.4,949.3,39.905318,32.804973,-92.1,39,1.9,39.1,0.58,2.16,-16.77,14:49:33.155
36.1,566.0,1.73,-0.89,-8.47,-4.1,947.8,39.905336,32.804963,-99.5,40,1.7,34.0,4.84,-3.78,8.38,14:49:33.256
35.2,575.7,-1.61,1.11,-9.28,-5.2,947.2,39.905335,32.804918,-86.9,41,1.2,36.1,0.08,7.61,0.11,14:49:33.357
37.4,580.0,2.67,-2.8,-9.6,-4.3,946.6,39.905384,32.804919,-88.8,42,1.2,37.8,-0.42,2.62,0.63,14:49:33.457
38.8,599.3,-0.67,-2.57,-11.05,-5.2,943.7,39.905345,32.804945,-87.9,43,1.8,39.8,3.39,3.45,-0.27,14:49:33.558
40.8,599.4,-3.26,-2.31,-10.05,-5.3,944.4,39.905343,32.804929,-89.5,44,0.5,40.0,-3.99,-4.69,1.12,14:49:33.659
44.3,622.8,2.97,1.53,-8.4,-5.1,941.8,39.90531,32.804946,-91.4,45,0.1,45.2,-5.25,9.55,4.32,14:49:33.759
39.2,643.1,4.76,3.47,-10.72,-5.1,939.5,39.905349,32.804962,-87.3,46,0.8,39.6,3.93,3.25,-5.91,14:49:33.860
39.6,638.5,-0.18,-4.92,-9.31,-5.0,939.9,39.905367,32.804938,-101.1,46,0.8,39.3,-2.64,-2.47,-2.65,14:49:33.961
40.6,676.7,-1.48,-0.58,-7.05,-5.9,935.3,39.905318,32.804938,-102.0,47,0.6,39.4,-2.18,-4.07,4.39,14:49:34.061
43.3,681.7,-1.94,2.48,-10.0,-5.5,934.8,39.905372,32.804923,-95.8,48,0.8,42.2,-1.81,2.28,5.06,14:49:34.162
41.9,690.5,1.08,0.4,-8.31,-5.4,933.6,39.905359,32.80497,-104.0,49,0.9,42.4,3.18,2.83,4.42,14:49:34.263
46.0,703.0,-0.98,-2.83,-10.75,-6.0,932.6,39.905362,32.804924,-88.0,50,0.7,45.4,8.8,7.25,0.39,14:49:34.363
45.5,727.2,0.79,-3.47,-10.0,-5.7,930.1,39.905366,32.804974,-90.7,51,1.2,45.2,-0.25,-0.92,1.1,14:49:34.464
44.5,740.1,4.28,0.63,-10.6,-5.8,928.7,39.905364,32.804932,-100.3,52,0.4,44.5,-11.76,2.9,0.36,14:49:34.565
45.2,734.3,2.1,-2.03,-9.12,-5.8,929.3,39.905367,32.804964,-90.5,53,1.4,45.2,-9.88,-0.93,2.75,14:49:34.666
48.2,738.8,3.72,-3.11,-8.25,-5.7,929.5,39.905371,32.80492,-96.7,54,0.8,48.7,-8.53,2.54,-5.05,14:49:34.767
52.6,782.7,-6.13,2.61,-9.68,-6.6,924.1,39.905342,32.804967,-96.2,55,1.7,52.3,-11.02,4.81,-2.93,14:49:34.867
48.2,789.5,0.27,-1.83,-10.17,-5.7,923.6,39.905359,32.804949,-104.6,56,0.3,47.2,-2.34,6.77,5.15,14:49:34.968
50.3,801.1,2.17,-5.59,-8.32,-6.3,922.1,39.905363,32.804963,-97.3,57,1.9,48.6,-6.52,3.47,6.36,14:49:35.069
52.2,826.3,-3.22,-3.3,-10.89,-6.6,919.3,39.905365,32.804982,-90.0,58,1.1,52.4,4.95,1.87,3.74,14:49:35.170
51.6,818.6,-0.26,-0.02,-11.79,-6.3,920.6,39.905359,32.804947,-95.6,59,1.8,52.1,-2.28,-5.76,-7.38,14:49:35.271
53.0,848.0,1.82,3.05,-8.52,-6.4,917.1,39.905377,32.804924,-94.3,60,1.8,52.2,3.85,-1.57,6.42,14:49:35.372
57.0,859.5,4.96,2.54,-8.91,-7.0,915.8,39.90536,32.804987,-95.5,61,2.0,56.3,-4.74,-5.17,5.17,14:49:35.472
56.4,869.0,-0.05,-2.3,-10.2,-6.6,914.7,39.905361,32.804968,-90.5,62,0.3,56.5,-6.54,-0.3,-4.92,14:49:35.573
56.3,864.8,-4.73,3.2,-8.33,-6.7,915.3,39.905334,32.804943,-96.2,63,0.3,57.5,3.82,-0.44,-3.04,14:49:35.674
56.7,908.6,-1.42,4.99,-8.51,-7.6,910.7,39.905339,32.804955,-93.6,64,0.5,55.9,-3.13,-1.97,1.81,14:49:35.774
61.4,893.2,1.22,0.12,-8.64,-7.0,911.7,39.905391,32.804981,-91.9,65,1.0,61.4,7.29,-6.6,-4.9,14:49:35.875
60.3,928.1,0.37,3.35,-9.25,-7.0,908.5,39.905356,32.804961,-93.4,66,0.1,58.2,-1.8,6.95,2.63,14:49:35.975
60.0,931.1,-2.49,-3.32,-10.07,-6.8,908.0,39.905378,32.804974,-88.5,67,1.1,61.5,11.43,2.68,2.74,14:49:36.076
57.0,946.5,0.29,-0.74,-10.32,-7.7,906.0,39.905362,32.804972,-98.0,68,0.2,57.2,4.7,-3.55,6.28,14:49:36.177
61.4,950.5,-2.35,-0.95,-9.58,-7.1,906.4,39.905387,32.805021,-105.0,69,0.3,61.0,-0.87,7.61,-3.88,14:49:36.278
62.3,968.9,-4.23,-0.67,-9.23,-7.1,903.8,39.905383,32.804978,-102.1,70,1.3,63.4,-3.11,5.75,6.24,14:49:36.378
66.2,1003.3,-0.77,-3.35,-10.74,-6.7,900.4,39.905381,32.804967,-88.7,71,1.6,65.6,-3.7,7.92,8.18,14:49:36.479
65.6,987.5,0.77,2.69,-9.44,-7.5,902.1,39.905381,32.804943,-86.2,72,1.1,65.0,-1.45,1.78,1.95,14:49:36.580
65.4,1020.6,3.54,4.05,-10.25,-7.5,899.1,39.905381,32.804949,-97.8,73,0.1,66.1,-0.47,5.11,-0.56,14:49:36.680
63.2,1022.3,3.89,-0.72,-8.77,-7.7,897.9,39.905338,32.80499,-91.1,74,0.8,61.8,0.72,5.68,-1.3,14:49:36.781
67.1,1038.5,-1.23,2.33,-13.42,-7.8,897.0,39.905391,32.804975,-89.8,75,0.7,66.5,6.57,11.61,-1.42,14:49:36.881
63.8,1066.7,-2.23,3.12,-9.89,-8.4,894.1,39.905386,32.805007,-100.3,76,1.1,64.8,-4.64,10.58,3.25,14:49:36.982
70.3,1051.5,-1.52,0.76,-10.16,-7.7,895.5,39.905379,32.804986,-101.0,77,0.1,71.6,-8.17,5.28,6.75,14:49:37.083
69.5,1078.7,2.08,-1.2,-9.89,-8.1,892.7,39.905357,32.804984,-104.7,78,0.7,70.1,4.02,-3.09,-2.33,14:49:37.184
66.9,1099.0,-0.9,-0.43,-10.88,-8.3,889.9,39.905373,32.805002,-94.3,79,1.8,66.2,-14.9,-3.94,-15.56,14:49:37.284
69.3,1113.7,-0.18,-2.56,-11.46,-8.7,889.0,39.905366,32.805008,-91.1,80,1.1,69.9,-2.01,-2.58,6.58,14:49:37.385
73.0,1119.8,1.38,3.84,-8.37,-8.6,888.1,39.905395,32.805015,-92.1,81,0.6,73.3,12.0,-0.47,1.67,14:49:37.486
69.1,1135.3,-2.47,3.36,-10.17,-8.7,886.0,39.905387,32.805029,-99.6,82,0.2,68.6,6.23,3.06,6.18,14:49:37.587
74.8,1141.2,0.81,1.7,-8.89,-8.3,885.4,39.9054,32.80497,-90.5,83,0.3,73.7,-0.88,-2.48,5.74,14:49:37.687
74.1,1154.3,4.72,3.16,-11.94,-8.7,885.0,39.905345,32.804991,-101.7,84,0.4,74.4,-2.87,1.18,2.19,14:49:37.788
73.7,1169.5,0.39,-2.94,-10.38,-8.8,883.2,39.905387,32.804926,-91.9,85,0.8,72.2,-2.09,-0.73,-3.67,14:49:37.889
74.6,1183.3,5.18,-0.29,-10.03,-8.7,880.7,39.905366,32.804957,-92.0,86,1.2,74.4,0.28,1.92,3.24,14:49:37.990
75.0,1199.2,-2.76,-2.52,-12.28,-8.5,879.5,39.905376,32.804974,-94.1,87,0.2,74.4,-4.06,2.05,-4.38,14:49:38.091
76.3,1210.1,0.81,1.04,-8.69,-8.5,879.2,39.90542,32.804972,-88.7,88,1.0,77.3,-5.98,10.83,-0.95,14:49:38.192
73.8,1230.2,-1.53,-6.58,-9.21,-9.0,876.9,39.905412,32.804982,-93.4,89,0.8,73.2,-1.43,-4.06,-7.55,14:49:38.292
81.1,1244.4,-4.6,1.37,-10.68,-9.3,875.5,39.905418,32.805017,-102.8,90,1.0,81.0,-6.02,4.26,5.26,14:49:38.393
81.9,1230.2,3.49,-0.49,-10.19,-9.0,876.7,39.905361,32.804975,-89.0,91,0.5,80.9,4.74,3.13,2.38,14:49:38.494
75.6,1261.2,4.05,3.81,-9.84,-8.7,872.9,39.905392,32.804994,-101.3,92,1.8,75.4,0.57,3.04,3.04,14:49:38.594
78.4,1275.6,0.53,-1.28,-10.42,-9.0,872.2,39.905401,32.804993,-89.9,93,1.4,78.2,-0.06,-3.3,-10.7,14:49:38.695
83.0,1284.7,-5.25,-2.93,-7.67,-9.2,870.4,39.905393,32.804976,-86.8,94,1.7,83.6,7.08,5.35,-3.3,14:49:38.797
82.6,1302.9,-1.38,3.05,-10.82,-9.0,868.5,39.90541,32.804986,-102.4,95,1.4,83.4,3.41,4.92,-7.81,14:49:38.898
81.3,1300.4,-0.82,0.04,-10.97,-8.9,869.4,39.905384,32.804988,-99.3,96,0.9,80.4,1.27,-3.86,8.17,14:49:38.998
82.3,1322.7,0.64,-1.2,-9.49,-9.5,866.9,39.905388,32.804998,-89.2,97,0.8,81.5,-6.96,0.5,6.84,14:49:39.099
81.7,1313.1,-0.69,-0.14,-9.01,-9.1,868.8,39.905402,32.804985,-87.9,98,0.4,81.0,-7.48,-0.55,0.82,14:49:39.200
84.0,1326.5,4.51,1.78,-10.07,-9.2,866.5,39.905394,32.804978,-85.0,99,1.5,83.6,-0.77,-5.67,3.92,14:49:39.301
86.9,1364.7,-2.63,4.18,-8.53,-9.3,863.8,39.905394,32.804988,-90.7,100,1.6,87.6,-1.26,6.37,0.57,14:49:39.402
85.9,1372.0,1.43,-1.17,-9.95,-9.7,862.9,39.905406,32.805011,-102.7,101,0.2,82.9,5.98,-5.15,3.22,14:49:39.503
84.7,1371.9,-2.62,-8.52,-9.21,-9.8,862.3,39.905393,32.805051,-87.5,102,1.7,83.8,2.99,-2.66,-7.64,14:49:39.603
87.5,1381.5,-0.41,1.12,-10.41,-9.6,861.3,39.905361,32.80499,-102.0,103,1.4,87.6,-6.13,-10.62,-5.76,14:49:39.704
87.9,1388.6,-1.72,-3.55,-9.64,-10.3,860.4,39.905411,32.804996,-102.5,104,0.2,86.7,10.45,-3.31,-3.66,14:49:39.804
90.1,1413.8,-3.0,0.23,-8.29,-10.0,858.7,39.905432,32.805021,-86.6,105,0.3,88.4,0.11,1.35,-4.24,14:49:39.905
90.9,1428.4,-4.93,-0.91,-9.1,-9.8,856.0,39.905411,32.805015,-91.6,106,1.4,89.5,-4.25,0.66,3.86,14:49:40.006
91.0,1442.6,3.0,-1.61,-9.75,-10.4,854.9,39.905411,32.805039,-85.0,107,0.1,90.7,1.02,-1.14,-4.6,14:49:40.106
92.0,1441.1,-2.61,1.22,-11.73,-10.3,855.2,39.905373,32.805002,-97.0,108,0.3,92.3,2.68,-2.01,-2.6,14:49:40.207
92.6,1470.9,-2.02,-2.18,-11.34,-10.3,852.5,39.905427,32.805003,-92.5,109,1.8,93.2,11.52,-2.55,2.05,14:49:40.308
92.3,1482.1,1.7,0.3,-9.22,-10.7,851.5,39.90543,32.805007,-101.2,110,1.9,93.5,1.79,-3.07,4.76,14:49:40.409
94.0,1475.3,0.08,0.32,-10.77,-10.6,851.5,39.90542,32.805003,-100.8,111,1.0,93.3,-5.82,2.89,-2.21,14:49:40.509
95.4,1486.7,2.5,-0.66,-10.47,-10.6,850.8,39.905421,32.80499,-87.4,112,2.0,95.7,2.8,-8.14,5.97,14:49:40.610
94.6,1514.4,-0.27,-3.48,-8.64,-10.7,848.8,39.90542,32.805005,-89.9,113,1.5,92.8,9.15,-5.8,-5.64,14:49:40.712
94.0,1518.3,0.5,1.62,-10.09,-10.2,847.5,39.905389,32.805055,-102.3,114,0.2,93.3,9.29,-1.05,-3.24,14:49:40.813
98.2,1523.2,1.96,-2.61,-8.52,-10.6,847.6,39.905403,32.80499,-93.5,115,0.8,97.8,1.2,-12.35,4.15,14:49:40.914
97.6,1551.0,-0.34,2.82,-10.53,-10.9,843.6,39.905425,32.805043,-99.0,116,0.8,97.1,5.87,-2.13,0.17,14:49:41.014
98.6,1551.0,-0.63,4.0,-8.22,-10.9,843.9,39.905408,32.805012,-91.8,117,0.3,98.8,-1.35,6.25,13.25,14:49:41.115
99.8,1572.1,-1.47,-1.89,-10.31,-10.9,842.8,39.90543,32.805026,-97.6,118,1.8,101.1,-1.82,-3.19,-8.8,14:49:41.215
100.4,1583.9,0.98,-0.63,-9.42,-11.0,840.8,39.905429,32.805038,-102.3,119,1.3,98.9,0.84,9.08,5.75,14:49:41.317
101.0,1596.4,-2.03,0.48,-8.77,-11.4,839.8,39.905413,32.805,-89.6,120,1.9,101.7,3.34,-6.59,-0.74,14:49:41.417
101.6,1607.5,5.08,0.56,-10.12,-11.7,838.9,39.905427,32.805036,-91.5,121,1.7,101.9,-0.97,1.12,7.33,14:49:41.518
97.9,1620.1,2.38,2.96,-11.72,-11.4,836.6,39.905452,32.805012,-101.5,122,1.5,97.8,2.56,3.74,-5.32,14:49:41.619
99.6,1623.2,0.29,-0.56,-9.44,-11.3,836.7,39.905416,32.804993,-92.7,123,0.7,99.3,4.66,-1.35,7.26,14:49:41.719
103.1,1637.7,1.88,-1.15,-9.08,-11.1,835.9,39.905435,32.805027,-90.3,124,1.3,102.4,-6.53,1.69,-8.74,14:49:41.820
101.6,1641.2,1.19,-5.1,-10.29,-11.3,835.0,39.9054,32.80501,-96.3,125,1.6,101.8,-2.06,1.46,1.45,14:49:41.920
103.4,1632.0,0.41,-1.82,-12.83,-11.4,836.5,39.905418,32.805025,-88.4,126,0.3,103.8,-13.41,-3.68,-1.85,14:49:42.021
102.5,1676.9,-1.46,1.79,-10.82,-11.7,831.6,39.905409,32.804986,-99.7,127,1.5,100.7,0.1,-5.13,-2.36,14:49:42.123
104.7,1684.8,-2.59,1.97,-9.55,-11.6,832.1,39.905448,32.805029,-94.8,128,1.9,104.2,-1.37,-8.1,10.75,14:49:42.223
105.4,1707.1,1.34,0.8,-10.11,-11.7,828.9,39.905426,32.805028,-93.9,129,1.6,106.0,1.29,-5.07,3.05,14:49:42.324
104.9,1699.6,-0.04,-0.03,-10.4,-11.7,828.9,39.905434,32.805032,-101.6,130,1.3,105.2,-4.63,9.57,-7.21,14:49:42.425
105.8,1728.2,0.88,-0.59,-8.75,-12.5,827.4,39.905438,32.805035,-95.6,131,1.4,106.0,2.46,-1.35,-3.32,14:49:42.525
105.7,1728.1,1.62,3.91,-8.1,-11.6,826.5,39.905454,32.805032,-98.0,132,0.4,105.5,0.59,-7.66,8.09,14:49:42.626
102.7,1736.9,0.21,-0.74,-9.65,-11.8,825.8,39.905479,32.805061,-91.5,133,0.2,102.4,4.53,-1.01,-2.55,14:49:42.727
106.6,1763.2,3.62,-1.28,-11.2,-12.7,823.8,39.905442,32.805005,-99.9,134,0.3,105.7,-3.44,7.17,2.38,14:49:42.828
107.8,1789.9,-0.32,1.33,-8.18,-12.5,820.7,39.905406,32.805031,-90.8,135,0.4,108.2,-5.54,10.18,-2.44,14:49:42.929
107.5,1766.9,-0.33,1.1,-12.27,-11.8,823.4,39.905444,32.805019,-103.9,136,1.8,104.4,4.85,1.05,-1.72,14:49:43.030
111.7,1791.0,-4.66,-2.54,-9.78,-11.9,821.5,39.905418,32.805044,-86.3,137,1.0,108.7,-0.39,4.44,4.32,14:49:43.130
111.9,1797.0,-0.65,2.33,-9.68,-12.3,820.0,39.905438,32.805029,-96.1,138,0.9,110.9,-3.63,-2.07,-2.18,14:49:43.231
110.8,1810.6,-0.13,-1.81,-9.88,-12.0,818.3,39.905442,32.805061,-104.1,139,1.7,110.6,-0.86,-0.32,-8.24,14:49:43.331
111.7,1816.0,-0.05,3.56,-10.57,-12.7,818.2,39.905454,32.805051,-89.6,140,1.0,111.2,-6.32,0.01,-4.94,14:49:43.432
110.7,1808.1,5.73,2.6,-11.18,-12.1,818.9,39.905465,32.805044,-89.4,141,1.5,111.6,-0.71,2.79,2.13,14:49:43.533
111.7,1826.8,1.27,2.32,-10.92,-12.4,817.5,39.905401,32.805,-101.2,142,1.5,110.3,-3.35,-1.11,-5.95,14:49:43.634
114.5,1871.4,-1.07,-0.65,-9.14,-13.0,813.0,39.905452,32.805036,-95.4,143,0.7,114.7,4.65,2.86,-7.5,14:49:43.735
114.9,1854.4,-0.05,3.69,-9.86,-13.0,815.2,39.905489,32.805046,-88.4,144,1.1,114.5,3.49,3.55,-1.56,14:49:43.835
116.2,1863.7,2.43,0.77,-12.32,-12.7,813.9,39.905426,32.805004,-94.1,145,1.0,115.8,-5.86,10.52,-6.13,14:49:43.936
113.2,1880.1,4.75,0.77,-9.59,-13.0,812.1,39.905444,32.80506,-89.2,146,0.2,113.8,-2.45,-1.67,4.56,14:49:44.037
116.2,1897.0,-4.83,-1.11,-10.45,-13.4,810.0,39.905465,32.805072,-91.7,147,1.6,116.5,-4.15,-11.21,0.77,14:49:44.138
116.4,1906.2,-2.35,-2.38,-12.05,-13.1,809.9,39.905445,32.805079,-98.5,148,0.9,116.9,0.48,-8.89,1.81,14:49:44.238
115.3,1911.4,1.92,5.15,-8.76,-12.7,809.0,39.90543,32.805055,-96.0,149,1.3,113.3,2.65,-10.84,-2.94,14:49:44.339
114.6,1930.8,-0.32,-1.26,-9.01,-13.2,808.3,39.905431,32.805035,-86.2,150,1.8,114.2,0.92,-4.44,-4.72,14:49:44.440
124.3,1928.0,-2.95,0.53,-7.53,-12.6,807.8,39.905484,32.805027,-99.9,151,0.9,123.4,-10.09,8.91,-0.68,14:49:44.540
123.3,1924.5,4.37,2.64,-9.17,-13.0,807.2,39.905427,32.805036,-99.6,152,0.9,123.6,13.12,0.17,-7.42,14:49:44.641
119.4,1959.3,-0.11,0.78,-8.82,-13.3,804.0,39.905445,32.805061,-88.0,153,0.4,121.1,-8.16,8.69,0.88,14:49:44.742
117.3,1951.9,4.88,-1.07,-9.96,-13.8,804.2,39.905457,32.805043,-88.3,154,1.7,116.5,5.18,-4.07,3.17,14:49:44.843
125.0,1963.8,-0.23,-2.04,-9.9,-13.2,803.4,39.905434,32.80507,-86.6,155,0.1,124.7,-1.95,-1.66,-1.77,14:49:44.944
123.5,1982.2,-1.49,2.6,-8.53,-13.6,802.4,39.905419,32.805045,-100.8,156,0.2,123.1,-1.49,2.35,15.01,14:49:45.044
120.6,1997.3,-2.61,-0.75,-9.56,-13.1,800.8,39.905471,32.805058,-99.9,157,0.3,121.3,5.04,-2.22,10.71,14:49:45.145
122.0,2010.6,-0.78,1.63,-10.03,-13.0,800.5,39.905454,32.80504,-98.9,158,0.6,122.5,-0.53,-2.17,-6.69,14:49:45.246
122.1,2022.5,-2.57,1.36,-9.52,-13.7,798.4,39.905449,32.805072,-103.5,159,1.6,120.4,2.64,4.32,1.72,14:49:45.346
125.4,2009.5,-7.76,1.48,-9.9,-13.1,800.1,39.905424,32.805107,-87.3,160,0.6,124.3,2.75,8.8,-12.79,14:49:45.447
124.5,2030.1,2.46,-0.4,-11.21,-13.8,797.4,39.905482,32.805058,-98.0,161,2.0,123.4,-3.97,-8.82,0.12,14:49:45.548
120.5,2043.0,0.79,1.3,-10.44,-13.6,796.9,39.905501,32.805066,-87.6,162,0.8,120.0,6.19,-4.19,3.52,14:49:45.649
123.8,2048.9,-5.44,0.03,-10.7,-13.7,796.7,39.905481,32.805064,-92.0,163,0.0,122.6,-0.39,6.22,2.02,14:49:45.749
129.1,2054.2,-0.73,-0.69,-10.99,-13.6,796.5,39.905478,32.805043,-101.7,164,1.6,129.3,3.73,-3.45,7.9,14:49:45.850
126.8,2053.4,2.26,3.49,-8.43,-14.0,795.5,39.905423,32.805073,-96.7,165,0.4,128.4,-4.81,1.16,-3.33,14:49:45.951
126.3,2088.5,1.62,2.54,-10.04,-14.1,793.1,39.905429,32.805113,-87.7,166,0.3,125.5,6.81,-2.65,-1.5,14:49:46.052
123.7,2088.7,0.92,-3.98,-9.96,-14.4,792.8,39.905486,32.805086,-89.7,167,1.6,121.9,-5.56,-2.71,-3.11,14:49:46.153
126.5,2103.9,2.54,0.3,-10.05,-13.9,792.0,39.905477,32.805077,-104.9,168,1.2,125.4,-4.01,-3.56,5.0,14:49:46.254
126.9,2103.7,-1.49,-1.05,-8.58,-14.0,791.2,39.905455,32.805052,-103.4,169,1.1,126.5,-3.96,-0.75,-0.95,14:49:46.355
127.8,2109.9,-1.77,-0.88,-9.31,-14.2,791.7,39.905469,32.805056,-88.4,170,0.4,125.5,1.55,-8.53,9.18,14:49:46.455
129.6,2130.4,0.72,-3.48,-9.6,-14.3,788.0,39.905457,32.805059,-99.3,171,1.5,129.5,-0.67,4.34,2.83,14:49:46.556
129.2,2126.6,0.08,1.21,-10.05,-14.3,788.0,39.905484,32.805046,-91.1,172,1.1,128.5,-0.9,-1.68,-2.08,14:49:46.657
128.0,2138.4,0.38,-0.05,-9.59,-14.2,788.0,39.905477,32.805073,-93.4,173,1.5,128.0,-1.57,-2.73,6.32,14:49:46.758
130.1,2133.7,6.02,2.68,-10.45,-13.9,787.8,39.905452,32.805069,-99.3,174,0.3,128.4,-0.61,-2.82,-3.14,14:49:46.858
129.3,2163.6,4.35,0.96,-9.73,-15.3,786.4,39.905472,32.805056,-97.8,175,1.1,128.6,6.29,-3.0,-3.51,14:49:46.959
129.2,2168.4,0.7,-0.41,-10.31,-14.5,785.3,39.905481,32.805086,-104.5,176,0.1,128.0,-6.59,5.92,0.29,14:49:47.060
127.4,2168.8,-0.44,1.31,-9.35,-14.8,784.9,39.905487,32.805108,-94.3,177,1.7,128.8,-2.24,-1.76,3.84,14:49:47.161
134.3,2201.4,2.09,-1.87,-8.42,-14.1,781.3,39.905507,32.805055,-95.5,178,1.0,134.0,-5.01,9.76,-5.66,14:49:47.261
135.2,2180.0,2.68,-0.82,-10.89,-14.7,784.1,39.905493,32.805094,-103.2,179,1.5,135.3,-9.52,-6.34,-1.16,14:49:47.363
131.7,2210.4,-6.01,-1.58,-10.32,-15.2,780.9,39.905506,32.805098,-97.5,180,1.3,131.8,-0.65,-6.28,-0.32,14:49:47.463
133.2,2230.2,1.96,0.95,-11.62,-14.9,779.4,39.90551,32.805076,-90.2,181,0.1,131.6,-11.25,2.33,0.55,14:49:47.564
128.8,2198.1,-0.2,-3.28,-10.85,-14.5,782.8,39.90548,32.805053,-86.1,182,1.5,129.9,-0.79,0.8,6.41,14:49:47.665
133.9,2242.7,-2.43,5.07,-8.84,-15.2,777.6,39.905501,32.805106,-96.3,183,1.4,132.7,-0.72,3.85,7.15,14:49:47.766
132.5,2229.5,0.58,-1.88,-8.23,-14.4,779.2,39.905528,32.805105,-93.0,184,0.3,131.4,0.07,-1.7,2.16,14:49:47.867
130.6,2223.4,5.74,1.0,-8.04,-15.4,780.7,39.905507,32.805073,-104.2,185,0.7,129.4,-0.1,0.3,-8.06,14:49:47.967
133.8,2249.8,-2.41,-0.1,-10.32,-15.1,777.5,39.905494,32.805071,-104.8,186,1.4,133.2,3.85,7.08,-0.74,14:49:48.069
134.3,2259.2,2.78,0.35,-11.31,-15.0,776.1,39.905463,32.805052,-95.4,187,0.7,134.2,-2.11,1.46,9.23,14:49:48.170
131.9,2284.3,-0.44,3.66,-9.29,-15.5,774.3,39.905474,32.805071,-97.2,189,1.4,132.2,-0.82,4.3,7.12,14:49:48.271
136.2,2291.5,-0.3,-1.84,-11.61,-15.6,773.9,39.905498,32.805115,-97.2,190,0.7,134.9,-3.52,7.21,8.61,14:49:48.372
136.4,2280.2,2.06,4.51,-10.18,-15.0,775.0,39.905504,32.805085,-97.1,191,0.7,137.3,0.88,1.47,5.53,14:49:48.473
133.5,2306.4,5.33,-2.46,-11.53,-15.5,772.6,39.905521,32.805095,-97.0,192,0.1,131.9,-0.46,4.55,0.11,14:49:48.573
137.9,2282.4,2.48,-3.89,-11.07,-15.0,774.8,39.905474,32.805086,-102.3,193,0.5,136.9,-4.12,6.26,-5.68,14:49:48.675
138.6,2325.5,0.3,0.04,-10.49,-15.6,772.1,39.90546,32.805127,-101.0,194,0.2,138.5,-4.99,-1.97,6.04,14:49:48.776
140.0,2305.7,0.49,-2.7,-10.85,-15.5,771.9,39.905468,32.805113,-101.7,195,1.3,139.4,-3.9,-4.73,3.11,14:49:48.877
136.6,2325.5,1.24,-1.06,-9.25,-15.0,770.5,39.905505,32.805112,-103.5,196,0.4,137.6,3.6,8.36,6.44,14:49:48.977
139.6,2333.0,4.04,0.53,-9.06,-15.8,770.2,39.905503,32.805117,-97.2,197,0.2,140.2,7.62,3.53,-2.06,14:49:49.079
139.6,2343.8,-2.9,-4.48,-9.58,-15.5,769.8,39.90547,32.805091,-102.6,198,1.6,138.6,-2.2,1.64,-2.25,14:49:49.179
144.5,2345.0,0.09,3.8,-12.51,-15.0,768.7,39.905496,32.805062,-90.0,199,1.4,144.1,3.33,-0.09,-1.92,14:49:49.280
138.1,2374.5,-2.72,-3.93,-10.28,-15.8,766.2,39.905484,32.805117,-88.6,200,0.7,135.7,-1.21,-0.47,0.72,14:49:49.381
141.2,2368.1,1.99,3.85,-10.29,-15.4,767.2,39.905474,32.80509,-90.5,201,0.9,141.0,6.31,-3.99,-4.03,14:49:49.481
140.9,2383.5,0.08,-2.24,-9.37,-16.6,765.5,39.905489,32.805108,-93.4,202,0.2,141.5,-1.46,8.86,7.13,14:49:49.582
139.5,2388.0,0.78,4.27,-12.54,-15.5,764.6,39.905499,32.805104,-99.1,203,1.0,138.2,4.23,-0.84,-7.24,14:49:49.683
142.2,2385.8,5.74,-1.3,-12.53,-16.1,763.9,39.905496,32.805096,-91.7,204,1.0,142.2,0.73,-6.17,-0.11,14:49:49.783
140.9,2394.0,-0.74,-1.94,-8.35,-15.2,764.6,39.90551,32.805139,-93.3,205,1.9,141.6,-0.72,-0.74,4.79,14:49:49.884
140.3,2408.8,0.09,-1.91,-9.99,-15.9,763.1,39.905501,32.805069,-91.1,206,0.8,139.1,0.97,0.23,-5.9,14:49:49.985
139.7,2423.0,-3.43,2.31,-9.68,-15.9,762.6,39.905514,32.805127,-98.7,207,0.8,139.2,-7.41,-3.27,1.59,14:49:50.085
142.1,2418.5,2.68,1.27,-7.89,-16.4,761.2,39.905482,32.805131,-97.3,208,1.1,142.1,-0.73,0.16,-2.33,14:49:50.186
144.0,2421.3,-1.01,-1.01,-8.34,-15.7,761.1,39.905541,32.805093,-87.5,209,1.9,143.8,-2.94,3.27,6.97,14:49:50.287
145.3,2437.1,5.58,2.42,-10.52,-15.2,760.7,39.90549,32.805119,-89.2,210,1.5,145.3,-4.71,-0.79,-9.38,14:49:50.388
142.9,2418.6,-1.27,5.24,-11.4,-15.9,762.2,39.905546,32.80514,-92.3,211,1.3,142.6,-1.71,5.3,2.89,14:49:50.488
141.8,2437.0,0.84,2.32,-10.25,-15.9,760.6,39.90555,32.805085,-96.3,212,0.8,142.0,-1.85,0.11,-0.88,14:49:50.589
143.0,2454.2,1.59,1.03,-9.25,-16.2,759.3,39.905506,32.805103,-93.5,213,0.4,141.1,-3.77,0.66,5.74,14:49:50.690
143.3,2469.1,0.99,-2.65,-10.57,-16.8,757.5,39.905498,32.805121,-92.4,214,1.8,142.2,1.29,9.06,-5.61,14:49:50.791
146.3,2466.8,0.17,-2.49,-10.18,-16.1,758.6,39.905507,32.805112,-99.1,215,1.9,147.9,1.47,-2.63,-0.73,14:49:50.891
146.6,2466.6,1.3,1.41,-8.93,-16.4,757.3,39.905529,32.805098,-88.1,216,0.7,147.1,7.36,0.13,4.11,14:49:50.992
149.9,2476.2,1.97,3.28,-10.02,-16.3,757.8,39.905545,32.805107,-90.4,217,0.7,148.7,-8.64,3.06,-0.74,14:49:51.093
146.5,2474.4,-0.84,1.84,-9.1,-16.1,757.0,39.905507,32.805099,-87.8,218,1.6,146.8,1.98,-3.49,8.97,14:49:51.193
142.1,2494.7,-2.84,3.76,-10.4,-16.4,754.8,39.905548,32.805119,-87.1,219,1.7,141.9,3.68,-1.02,-3.29,14:49:51.294
144.3,2501.1,-0.69,-3.86,-12.04,-16.7,754.6,39.905502,32.805112,-100.0,220,1.2,143.0,-5.43,-0.22,3.4,14:49:51.395
146.5,2493.0,-1.23,-0.43,-9.76,-16.4,755.6,39.905564,32.80513,-99.9,221,0.9,143.2,1.87,8.42,-3.89,14:49:51.495
147.0,2501.9,0.99,1.3,-9.15,-15.9,754.4,39.905568,32.8051,-102.1,222,1.6,147.7,-0.77,7.06,-3.39,14:49:51.596
150.5,2529.2,-2.82,2.78,-12.08,-16.8,752.0,39.905541,32.805119,-103.4,223,0.9,150.0,4.12,11.52,-1.21,14:49:51.697
144.5,2533.5,3.24,-1.19,-7.88,-16.9,752.5,39.905476,32.805128,-86.1,224,1.4,143.7,-5.11,7.0,6.28,14:49:51.798
147.7,2529.8,-5.84,-4.91,-9.78,-16.9,752.3,39.905544,32.805126,-85.5,225,0.3,146.9,9.09,4.13,-7.22,14:49:51.898
148.5,2535.2,-3.66,0.94,-8.88,-16.2,751.9,39.905529,32.805123,-91.2,226,1.0,148.5,13.23,-3.49,-3.71,14:49:51.999
147.2,2546.2,-1.22,5.03,-10.07,-16.2,750.5,39.90552,32.805149,-99.0,227,0.1,147.3,8.37,-2.76,1.73,14:49:52.100
148.3,2520.2,-1.63,-1.64,-9.24,-16.3,753.5,39.905529,32.805144,-89.3,228,1.8,147.4,-0.31,1.92,1.66,14:49:52.200
148.6,2553.8,-1.07,-1.29,-9.78,-16.5,749.5,39.905533,32.805187,-103.9,229,0.8,148.0,3.21,-3.19,6.74,14:49:52.302
144.4,2538.0,0.02,-1.44,-8.9,-16.4,752.6,39.905515,32.805145,-94.4,230,0.8,146.4,5.39,-1.01,1.88,14:49:52.402
147.7,2549.1,-1.45,-4.3,-9.7,-17.3,751.1,39.905573,32.805134,-96.8,231,1.5,148.4,-3.86,-4.9,4.33,14:49:52.503
146.8,2547.7,0.67,1.19,-10.62,-16.8,750.7,39.905552,32.805131,-89.9,232,1.5,144.7,-1.59,5.87,-5.11,14:49:52.604
147.9,2578.6,-0.39,-2.2,-10.86,-17.2,747.9,39.905544,32.805129,-96.6,233,0.2,147.4,6.2,-1.46,-1.9,14:49:52.704
145.9,2574.6,-5.53,0.23,-11.75,-17.2,748.6,39.905538,32.805118,-94.1,234,1.9,146.2,-1.65,10.76,5.76,14:49:52.805
147.5,2592.3,-2.34,-3.5,-8.05,-16.4,747.1,39.905559,32.805155,-93.4,235,1.2,146.6,-5.39,-3.34,8.64,14:49:52.906
143.5,2588.5,2.02,0.97,-10.1,-16.9,747.9,39.905535,32.805159,-90.6,236,1.6,141.8,-5.88,-0.1,4.09,14:49:53.007
148.3,2598.1,1.62,2.5,-10.67,-17.0,746.9,39.905575,32.805117,-100.7,237,1.5,148.3,8.51,-1.53,-1.92,14:49:53.108
148.5,2608.9,0.01,0.92,-9.17,-17.2,746.3,39.90553,32.805181,-104.8,238,0.3,148.1,-1.17,-3.2,2.39,14:49:53.209
148.6,2608.4,-2.53,1.87,-12.04,-17.1,745.6,39.905523,32.805098,-90.3,239,1.6,148.3,13.12,-3.62,1.16,14:49:53.310
145.7,2607.9,-2.28,1.12,-9.05,-17.1,745.8,39.90554,32.805118,-92.8,240,0.5,144.4,3.51,-7.31,-8.58,14:49:53.410
148.4,2623.2,-0.36,3.59,-8.98,-16.8,744.2,39.90555,32.805154,-89.9,241,1.9,148.0,0.44,-1.49,1.67,14:49:53.511
152.5,2622.5,-0.97,0.17,-10.03,-16.9,745.4,39.905554,32.805147,-97.6,242,0.3,152.1,0.59,-1.2,-1.39,14:49:53.612
151.6,2621.6,1.35,0.32,-10.58,-17.1,744.8,39.905541,32.805112,-86.2,243,1.8,150.5,-3.24,-2.84,4.84,14:49:53.713
148.2,2661.3,0.28,-3.52,-10.97,-17.5,741.2,39.905566,32.805166,-92.7,244,1.6,148.3,-5.06,0.66,-5.5,14:49:53.813
144.2,2628.6,0.91,0.79,-10.52,-17.2,743.2,39.90551,32.805164,-97.1,245,0.0,145.1,6.92,13.04,7.45,14:49:53.914
150.5,2641.3,0.42,-2.7,-9.24,-17.2,742.3,39.90553,32.805132,-104.6,246,0.8,149.6,-2.44,0.86,3.56,14:49:54.015
147.7,2656.0,0.38,1.8,-11.66,-17.5,741.0,39.905518,32.805147,-91.7,247,1.2,148.1,12.25,5.35,-1.32,14:49:54.116
148.5,2648.0,-2.15,0.63,-9.43,-17.3,742.2,39.905556,32.805192,-93.7,248,0.4,148.4,3.56,9.61,0.47,14:49:54.217
150.9,2657.8,0.21,-5.34,-11.59,-17.7,741.4,39.905544,32.805164,-96.4,249,0.6,150.6,2.14,9.59,-4.95,14:49:54.317
151.6,2650.4,-3.12,-3.33,-9.02,-17.6,741.6,39.905546,32.805144,-86.9,250,0.9,151.4,9.07,-4.34,4.04,14:49:54.418
150.7,2672.2,-0.56,-3.6,-8.69,-17.3,739.2,39.905553,32.80513,-99.1,251,1.5,150.8,2.43,-1.66,6.21,14:49:54.519
147.9,2675.5,0.69,-0.43,-9.43,-17.5,738.5,39.905528,32.805152,-97.4,252,1.7,146.9,2.56,6.54,5.11,14:49:54.620
151.5,2673.4,1.8,5.5,-11.31,-17.0,739.2,39.905551,32.80513,-98.3,253,1.3,150.6,3.13,7.96,3.58,14:49:54.720
152.6,2687.8,0.84,2.47,-9.2,-17.9,739.3,39.905561,32.805161,-101.3,254,1.7,151.3,6.27,-2.74,3.72,14:49:54.821
151.4,2688.5,2.6,-1.04,-9.27,-18.3,739.2,39.905574,32.805141,-103.3,255,1.0,149.3,4.89,5.13,6.33,14:49:54.921
150.4,2678.9,1.5,1.15,-9.53,-17.7,738.9,39.905547,32.805168,-102.8,256,0.0,148.5,-8.02,6.75,2.88,14:49:55.022
152.3,2687.3,5.82,1.86,-11.0,-17.9,738.9,39.905543,32.80516,-92.0,257,0.2,152.6,1.12,7.48,0.93,14:49:55.123
150.9,2676.8,-1.11,5.33,-8.57,-18.1,740.4,39.905549,32.805164,-97.8,258,0.6,149.9,-2.07,3.15,3.3,14:49:55.224
152.0,2716.5,-0.06,0.72,-11.36,-18.0,735.4,39.905533,32.805171,-102.5,259,1.5,151.3,-1.66,-0.63,1.21,14:49:55.325
149.5,2704.4,-2.22,0.66,-9.13,-17.8,736.9,39.905576,32.805142,-85.5,260,0.8,148.2,-5.71,-9.22,1.29,14:49:55.426
154.5,2706.7,1.03,4.05,-10.84,-17.2,737.0,39.905575,32.805145,-98.3,261,0.3,154.3,1.17,-1.96,-3.32,14:49:55.526
151.0,2704.0,1.97,3.45,-10.54,-17.9,736.6,39.90554,32.805198,-90.6,262,0.7,149.7,0.84,-8.53,-3.71,14:49:55.627
151.3,2699.8,0.3,-2.35,-11.05,-17.6,737.7,39.905561,32.805166,-89.2,263,1.7,150.0,-3.32,5.4,5.6,14:49:55.728
151.4,2728.4,-1.53,2.73,-9.44,-17.2,734.5,39.905543,32.805148,-98.8,264,1.8,150.5,9.53,-1.66,0.17,14:49:55.828
151.2,2721.6,-1.37,-0.96,-9.57,-18.2,736.2,39.905623,32.805166,-92.1,265,1.5,150.6,14.36,1.85,5.35,14:49:55.929
152.2,2730.9,-0.09,-1.73,-11.13,-17.5,735.6,39.90559,32.805166,-101.8,266,0.5,153.3,12.49,0.78,-1.59,14:49:56.030
148.1,2724.0,0.29,-2.86,-10.36,-18.0,735.6,39.905596,32.805187,-102.4,267,0.1,146.3,3.25,-2.74,-8.19,14:49:56.130
149.8,2740.9,1.97,0.83,-10.08,-17.8,734.4,39.905563,32.805168,-85.4,268,1.8,148.6,3.84,5.49,-0.29,14:49:56.231
153.5,2712.0,-0.68,4.35,-8.95,-18.2,736.5,39.905557,32.805149,-102.5,269,1.3,153.4,-2.2,-2.02,-7.76,14:49:56.332
155.1,2733.8,-3.76,-1.22,-14.36,-17.8,734.6,39.905566,32.805167,-96.1,270,0.8,153.0,-2.29,2.82,-0.07,14:49:56.433
153.0,2738.8,-0.29,-0.66,-9.43,-18.0,733.8,39.90557,32.805169,-91.1,271,0.1,156.0,1.05,3.82,-4.82,14:49:56.534
149.7,2709.1,-3.96,-3.37,-10.35,-18.0,735.7,39.905564,32.805188,-92.1,272,1.7,147.9,-7.21,4.84,2.49,14:49:56.635
152.6,2757.3,-1.85,0.6,-8.95,-18.4,732.7,39.905526,32.805178,-102.2,273,0.3,152.2,1.2,0.26,-9.09,14:49:56.736
152.8,2755.6,1.99,3.1,-8.39,-18.5,732.0,39.905564,32.805191,-96.9,274,1.0,153.1,-6.96,7.06,4.36,14:49:56.837
150.1,2762.5,0.0,0.89,-10.88,-18.5,732.0,39.9056,32.805183,-96.3,275,1.1,148.0,-3.54,-1.36,7.12,14:49:56.937
148.4,2758.1,5.43,0.71,-10.33,-17.8,732.7,39.90557,32.805188,-93.5,276,0.4,147.8,2.0,-3.23,-2.31,14:49:57.038
149.1,2740.5,-0.46,-0.05,-8.47,-18.1,733.8,39.905594,32.80517,-100.4,277,0.4,149.6,-3.55,5.74,-1.32,14:49:57.139
150.8,2753.0,0.03,-0.03,-10.46,-18.1,733.0,39.905559,32.805196,-88.9,278,1.3,151.1,-0.15,-0.73,0.13,14:49:57.240
148.2,2766.2,2.95,3.44,-9.45,-18.6,732.0,39.905573,32.805219,-90.2,279,1.6,146.1,6.59,-9.9,2.28,14:49:57.340
151.8,2769.8,-1.35,-1.66,-9.09,-18.2,731.8,39.905588,32.805174,-85.2,280,1.2,150.8,-2.24,-7.76,4.87,14:49:57.441
149.3,2763.0,2.23,-3.04,-10.99,-18.4,732.9,39.905594,32.805184,-99.3,281,0.4,146.7,-2.72,-4.99,-3.1,14:49:57.542
147.6,2774.7,-0.36,1.1,-9.29,-18.0,731.9,39.905569,32.805189,-86.9,282,0.1,147.1,2.63,-7.08,2.59,14:49:57.643
149.1,2773.2,1.01,-4.51,-10.33,-18.4,730.7,39.905549,32.805219,-102.8,283,0.4,148.1,-0.38,3.39,-2.38,14:49:57.744
149.0,2776.0,-2.81,-0.02,-9.78,-18.2,731.1,39.905576,32.805178,-85.9,284,1.7,149.4,1.03,-2.69,1.17,14:49:57.845
145.5,2776.4,5.25,3.03,-11.04,-18.2,731.3,39.905585,32.805179,-93.2,285,1.2,145.4,12.16,-3.3,-9.48,14:49:57.946
147.1,2765.8,0.58,-1.15,-10.16,-18.0,731.4,39.905602,32.805188,-103.6,286,1.2,147.3,-1.43,3.72,2.6,14:49:58.057
150.9,2784.5,-0.79,1.94,-12.24,-18.3,730.4,39.905563,32.805194,-90.7,287,0.1,149.5,-6.65,-7.68,-0.36,14:49:58.166
149.5,2768.6,2.81,1.11,-7.77,-18.6,730.9,39.905582,32.805134,-92.5,288,1.6,148.5,4.02,-0.02,1.76,14:49:58.266
151.0,2770.0,3.53,-2.88,-10.91,-18.2,731.8,39.905575,32.805201,-92.3,289,1.4,152.1,3.31,6.91,-0.63,14:49:58.367
150.5,2776.5,1.39,2.52,-8.01,-18.4,730.6,39.905598,32.805181,-95.3,290,0.5,149.9,3.59,-1.94,3.61,14:49:58.468
150.1,2767.3,1.12,0.97,-10.9,-18.4,731.5,39.90563,32.805175,-92.6,291,0.5,148.7,1.27,8.58,0.04,14:49:58.568
148.8,2808.3,1.69,2.63,-9.3,-18.6,728.7,39.905575,32.805158,-92.3,292,1.7,148.5,6.44,-2.83,1.18,14:49:58.669
148.6,2797.5,-1.49,2.75,-7.52,-18.5,728.7,39.905565,32.8052,-102.4,293,1.8,147.5,-12.04,2.66,-7.56,14:49:58.770
149.6,2772.8,0.11,0.12,-11.51,-18.1,731.1,39.905564,32.805187,-99.3,294,1.3,150.0,1.87,3.65,-6.67,14:49:58.870
151.9,2774.4,0.85,-0.02,-9.12,-18.5,731.7,39.905586,32.805154,-90.2,295,1.7,151.6,9.47,3.47,-6.19,14:49:58.971
149.0,2791.8,0.19,-3.05,-7.82,-18.4,730.3,39.905608,32.805218,-100.0,296,0.4,149.6,1.58,0.85,-1.96,14:49:59.072
149.9,2786.3,-1.35,-0.64,-11.59,-18.4,729.8,39.905598,32.805171,-91.3,297,2.0,150.4,-7.62,5.71,-7.08,14:49:59.173
148.7,2794.2,2.26,4.79,-9.16,-18.6,728.6,39.905574,32.805177,-90.2,298,0.4,148.9,3.36,7.65,-5.21,14:49:59.274
148.3,2792.4,-0.93,2.86,-9.34,-18.6,730.1,39.90563,32.805189,-93.6,299,0.6,148.5,2.14,-4.19,-1.76,14:49:59.375
148.1,2791.0,-1.94,-0.94,-8.88,-18.4,728.9,39.905626,32.805231,-94.1,300,0.9,148.3,-8.35,-6.8,-2.26,14:49:59.476
147.0,2777.3,2.0,1.86,-10.09,-17.9,731.2,39.905608,32.805204,-95.3,301,0.4,145.9,-2.54,-0.9,0.61,14:49:59.576
149.3,2792.6,-2.0,1.47,-12.24,-18.2,729.6,39.905582,32.805174,-99.0,302,0.4,149.2,3.12,3.69,-3.78,14:49:59.678
147.6,2797.1,1.0,0.28,-8.05,-17.8,729.7,39.905619,32.805231,-87.3,303,0.9,147.6,-1.97,-4.92,-3.72,14:49:59.778
147.9,2791.6,3.04,-3.33,-8.87,-17.9,729.4,39.905589,32.805198,-96.4,304,1.4,146.3,1.28,-5.51,8.42,14:49:59.879
149.4,2799.7,2.08,-2.47,-10.49,-18.8,728.9,39.905609,32.805199,-94.7,305,0.8,148.7,-0.78,-0.13,0.12,14:49:59.980
149.0,2794.8,-0.07,-0.87,-11.62,-17.9,729.1,39.905584,32.805224,-96.4,306,1.7,147.0,-0.09,0.46,-1.82,14:50:00.081
148.0,2788.0,2.36,-0.39,-11.71,-17.8,730.3,39.905568,32.805209,-103.3,307,1.5,148.0,5.08,-9.58,1.18,14:50:00.182
146.2,2802.6,-0.83,2.48,-8.98,-17.9,729.1,39.905585,32.805217,-101.9,308,0.6,144.5,-3.67,-3.95,-3.2,14:50:00.283
145.4,2788.7,0.24,-2.26,-9.88,-18.0,730.0,39.905612,32.805212,-95.2,309,1.1,143.6,0.32,-4.14,-3.92,14:50:00.383
145.7,2794.6,-3.99,-0.77,-10.32,-18.2,729.2,39.90562,32.805192,-101.1,310,0.8,144.5,11.33,-4.04,-4.07,14:50:00.484
147.5,2773.1,-3.35,0.71,-11.24,-17.9,730.9,39.90559,32.805213,-91.5,311,1.0,146.7,1.21,0.52,3.53,14:50:00.585
147.9,2799.0,0.81,0.89,-10.5,-18.1,728.6,39.905621,32.805227,-94.2,312,0.0,146.5,-7.54,7.2,-3.19,14:50:00.687
143.8,2796.9,0.6,-3.24,-9.27,-18.1,729.1,39.905599,32.80518,-91.8,313,1.9,142.8,-1.1,-0.44,2.55,14:50:00.787
146.9,2800.4,-3.87,-0.53,-12.73,-18.3,729.4,39.905621,32.805229,-93.8,314,0.9,146.3,-2.28,1.1,4.21,14:50:00.888
142.5,2777.1,0.82,0.08,-9.27,-17.6,730.2,39.905586,32.805253,-85.2,315,0.2,142.3,-1.24,7.4,6.51,14:50:00.988
142.7,2793.1,1.35,2.8,-9.98,-18.2,729.6,39.905648,32.805217,-89.2,316,1.5,141.3,-1.17,10.0,-3.86,14:50:01.089
144.8,2793.9,0.23,3.43,-9.23,-18.5,730.1,39.905619,32.80524,-95.9,317,0.9,145.0,-7.61,-5.02,-11.57,14:50:01.190
147.2,2822.5,-1.9,-0.25,-9.51,-18.8,727.7,39.905609,32.80519,-100.2,318,2.0,146.4,0.73,4.13,-3.66,14:50:01.291
148.4,2797.2,-2.86,1.66,-9.12,-18.1,728.9,39.905608,32.805221,-104.6,319,0.0,147.7,14.3,-1.12,-11.93,14:50:01.392
144.6,2790.6,1.63,-3.09,-11.04,-18.1,729.5,39.905623,32.805204,-97.6,320,0.1,144.4,4.59,-6.58,-5.29,14:50:01.493
144.1,2790.9,-1.69,2.01,-10.0,-17.6,729.8,39.905622,32.8052,-99.4,321,1.7,143.2,1.67,4.29,5.36,14:50:01.594
141.3,2818.7,-1.7,1.42,-9.14,-18.5,727.7,39.905626,32.805227,-102.6,322,0.2,137.8,0.93,4.75,3.16,14:50:01.695
143.1,2799.9,-1.13,-1.87,-9.75,-18.1,729.0,39.905647,32.805241,-97.9,323,1.8,143.1,-0.1,-7.25,7.22,14:50:01.796
141.8,2798.9,0.33,2.26,-11.02,-18.6,729.3,39.905593,32.805213,-103.6,324,1.5,142.0,0.28,3.1,-0.73,14:50:01.897
143.0,2789.1,-0.7,0.11,-11.47,-18.1,729.2,39.905637,32.805211,-85.2,325,0.8,141.0,-7.53,-4.63,-5.18,14:50:01.998
142.7,2792.0,1.18,1.73,-11.89,-18.2,728.9,39.905588,32.805208,-98.4,326,0.7,143.1,5.47,3.04,-0.23,14:50:02.099
144.1,2797.5,-1.22,-1.59,-11.17,-18.4,728.6,39.905599,32.805204,-90.7,327,1.9,144.7,-5.38,-0.21,0.84,14:50:02.200
145.6,2805.2,4.59,-1.52,-7.93,-18.0,728.2,39.905632,32.805224,-102.4,328,1.3,144.5,0.29,-1.34,-6.09,14:50:02.300
139.2,2793.1,1.93,-8.23,-10.55,-18.6,729.7,39.905606,32.8052,-103.3,329,0.7,137.7,-0.21,5.27,5.96,14:50:02.401
143.2,2782.6,1.01,2.12,-9.91,-18.9,730.0,39.905652,32.805214,-101.2,330,0.9,142.9,-8.2,12.7,-4.52,14:50:02.502
143.4,2797.6,2.38,2.01,-11.61,-18.5,729.0,39.905612,32.805259,-98.8,331,0.9,143.0,-4.53,-3.89,0.74,14:50:02.603
140.5,2776.9,-3.67,1.07,-9.22,-18.5,731.5,39.905628,32.80522,-100.1,332,0.7,138.2,3.91,-5.94,2.87,14:50:02.704
141.8,2798.1,1.22,-2.03,-9.78,-18.4,729.5,39.905639,32.805232,-86.1,333,1.1,143.8,-4.22,-1.59,-1.14,14:50:02.804
141.5,2792.8,4.6,-2.24,-8.77,-17.9,729.4,39.90563,32.805189,-100.8,334,0.6,140.5,-1.84,-1.39,5.44,14:50:02.905
142.6,2783.4,0.07,-0.31,-11.35,-18.1,729.5,39.905644,32.805227,-88.8,335,0.5,141.0,2.58,-1.69,3.61,14:50:03.006
139.0,2784.0,0.27,0.2,-9.58,-17.8,730.1,39.905655,32.805245,-94.4,336,0.1,139.3,13.24,-4.21,3.52,14:50:03.107
135.4,2791.6,-2.07,-3.16,-12.12,-17.7,730.0,39.905652,32.805235,-100.6,337,0.7,135.8,-7.49,0.12,15.41,14:50:03.208
137.9,2783.5,-0.79,2.7,-7.58,-18.4,730.0,39.905664,32.805239,-98.2,338,1.9,137.4,0.84,-3.82,4.66,14:50:03.308
138.9,2769.0,-1.72,0.01,-10.98,-18.0,730.6,39.905646,32.805264,-102.9,339,0.9,139.3,1.2,-2.5,4.48,14:50:03.409
140.0,2765.4,1.68,0.46,-11.06,-18.0,732.2,39.905643,32.805258,-100.2,340,0.7,139.5,-2.59,-0.21,-2.78,14:50:03.510
139.7,2746.5,4.02,6.13,-10.63,-18.1,733.1,39.905667,32.805223,-89.0,341,0.1,139.0,0.37,-4.88,-1.04,14:50:03.611
135.0,2773.8,-0.61,2.61,-9.86,-18.1,731.9,39.905659,32.805217,-93.5,342,1.5,133.3,-5.64,5.72,-3.1,14:50:03.711
135.4,2793.9,-3.36,0.98,-9.84,-18.3,729.4,39.905659,32.805244,-104.3,343,0.6,135.3,-1.1,1.97,7.66,14:50:03.812
142.6,2778.3,1.91,4.73,-8.79,-18.4,730.9,39.905659,32.805245,-102.9,344,1.4,141.6,-5.22,-8.56,-5.1,14:50:03.913
140.3,2792.1,-0.61,5.43,-10.29,-18.7,730.0,39.905623,32.805235,-101.7,345,0.4,139.1,0.02,2.61,-9.28,14:50:04.014
138.8,2768.2,0.58,2.38,-10.13,-18.0,731.4,39.905659,32.80522,-93.2,346,1.8,135.4,-6.17,-11.37,-3.68,14:50:04.115
140.1,2767.3,-2.3,-0.1,-11.68,-18.3,730.8,39.905643,32.80526,-95.0,347,1.5,138.8,-3.4,-0.16,1.01,14:50:04.215
137.8,2773.6,-0.65,-0.68,-10.36,-18.4,731.0,39.905637,32.805237,-95.4,348,0.2,136.9,0.65,-5.1,3.95,14:50:04.316
137.4,2739.4,-1.94,2.63,-9.67,-18.3,734.3,39.905653,32.805252,-94.6,349,1.5,136.5,7.49,4.94,6.64,14:50:04.417
135.9,2745.4,2.56,-2.37,-7.88,-17.9,733.8,39.905671,32.805224,-101.5,350,1.7,135.4,2.93,-8.56,-4.53,14:50:04.517
135.6,2761.1,3.72,-2.68,-10.72,-18.6,733.0,39.905701,32.805242,-92.4,351,0.5,135.8,0.83,1.84,-2.97,14:50:04.618
134.3,2747.3,0.38,-1.02,-10.34,-17.6,733.2,39.905668,32.805228,-98.1,352,1.0,132.8,-3.35,-9.78,4.07,14:50:04.718
135.5,2763.4,0.57,-1.14,-9.85,-18.4,732.9,39.90568,32.805267,-95.5,353,0.1,136.0,-3.65,0.94,4.66,14:50:04.819
135.7,2754.5,-0.48,0.91,-10.28,-17.5,733.3,39.905677,32.805255,-90.0,354,1.5,135.5,12.43,11.87,-9.6,14:50:04.920
133.7,2746.4,-1.67,-0.59,-11.99,-18.0,732.6,39.905665,32.80527,-94.7,355,1.1,133.7,5.21,-2.65,1.96,14:50:05.021
136.3,2736.9,-4.08,3.77,-10.07,-18.1,734.7,39.90564,32.805285,-98.3,356,1.7,134.9,1.86,-0.08,-4.86,14:50:05.121
133.4,2713.4,-3.38,0.7,-10.49,-17.8,736.5,39.905667,32.805226,-95.4,357,0.4,132.4,-3.77,3.15,8.39,14:50:05.222
133.4,2735.0,-8.0,3.53,-9.75,-18.1,734.0,39.905625,32.805222,-90.0,358,0.8,134.5,8.85,6.05,3.15,14:50:05.323
132.1,2725.2,0.29,-2.07,-11.19,-17.8,735.8,39.905677,32.805251,-104.1,359,0.6,130.1,3.06,1.16,-11.66,14:50:05.424
133.5,2722.9,1.26,-2.54,-11.72,-18.2,735.2,39.905687,32.805245,-94.2,360,0.8,131.5,-1.98,-6.42,-0.22,14:50:05.525
132.8,2720.8,2.23,1.14,-9.08,-17.8,736.1,39.905691,32.805246,-93.2,361,0.0,133.1,5.07,-5.31,-1.21,14:50:05.625
133.0,2730.0,-1.99,-2.53,-9.34,-18.3,734.9,39.905667,32.805202,-86.3,362,2.0,133.8,-3.13,7.76,-3.98,14:50:05.725
129.5,2731.0,1.09,-3.35,-9.1,-17.8,735.7,39.905623,32.80526,-97.2,363,1.3,131.5,9.89,-0.94,0.51,14:50:05.826
130.8,2704.5,-1.79,3.01,-7.95,-17.7,736.7,39.90568,32.805259,-104.5,364,0.9,131.1,-3.95,0.33,0.5,14:50:05.927
128.3,2733.6,3.8,-0.19,-10.12,-18.2,734.4,39.90569,32.805275,-95.7,365,0.7,127.7,-3.86,5.05,-2.46,14:50:06.027
129.2,2710.6,-10.25,-4.16,-8.26,-17.6,736.7,39.90566,32.805287,-101.2,366,0.5,127.7,2.96,3.75,1.32,14:50:06.128
130.0,2716.5,1.9,-0.97,-10.14,-17.9,737.0,39.905643,32.80527,-101.5,367,1.0,128.7,2.28,-0.05,-0.42,14:50:06.229
129.6,2693.3,-0.23,-6.28,-8.99,-18.0,737.2,39.905664,32.805242,-100.4,368,0.4,128.0,-2.23,5.53,0.2,14:50:06.330
131.1,2689.8,1.28,-2.31,-8.36,-18.0,738.4,39.905668,32.80524,-97.1,369,1.0,130.2,-6.8,-4.43,6.1,14:50:06.430
129.9,2693.3,-3.38,-1.95,-7.51,-17.8,737.7,39.905659,32.805304,-90.0,370,1.4,128.8,-0.1,7.39,-1.67,14:50:06.531
124.5,2691.1,1.56,2.91,-8.43,-18.0,738.2,39.905707,32.805271,-85.2,371,2.0,124.0,10.38,4.64,-6.6,14:50:06.632
126.5,2688.1,1.74,1.41,-10.04,-17.2,738.9,39.905719,32.805262,-95.4,372,0.9,125.4,2.08,-2.25,6.29,14:50:06.733
123.3,2670.5,1.86,1.99,-9.97,-17.6,739.8,39.905694,32.805298,-98.5,373,0.8,123.0,5.18,-1.68,0.46,14:50:06.835
127.1,2668.8,-0.27,-0.55,-10.53,-17.5,741.0,39.905677,32.805265,-89.6,374,1.7,126.9,-1.17,2.44,5.02,14:50:06.936
124.1,2677.3,-1.51,2.13,-8.26,-17.6,738.9,39.905671,32.805295,-104.0,375,0.2,123.4,-5.3,6.3,0.44,14:50:07.037
129.2,2680.5,-4.35,2.56,-9.76,-18.1,738.8,39.90567,32.805286,-102.5,376,0.7,129.3,0.99,3.74,-10.48,14:50:07.138
125.7,2671.9,1.42,2.93,-11.42,-17.4,739.4,39.905706,32.80531,-94.2,377,1.6,125.5,-3.66,-1.06,-0.71,14:50:07.239
123.6,2647.7,-1.7,-0.52,-7.99,-17.6,742.2,39.905643,32.805285,-86.2,378,1.0,122.5,-2.9,1.97,-5.84,14:50:07.340
122.3,2651.5,-0.85,2.95,-9.82,-17.1,741.6,39.905663,32.80526,-102.7,379,1.1,119.8,3.76,-3.85,-5.72,14:50:07.441
125.2,2669.6,0.94,0.69,-11.26,-17.8,740.0,39.905675,32.805267,-85.7,380,1.0,124.7,-1.13,-6.69,2.54,14:50:07.542
119.7,2642.7,-0.6,-0.73,-8.62,-17.2,742.2,39.905696,32.80529,-101.4,381,0.9,120.5,4.54,2.03,5.28,14:50:07.643
122.9,2643.3,0.19,2.01,-11.29,-17.3,742.7,39.90566,32.805258,-99.3,382,0.7,123.3,4.2,5.28,5.87,14:50:07.744
122.9,2642.7,3.8,-0.14,-10.95,-17.9,742.7,39.905719,32.805294,-98.4,383,1.3,123.7,0.62,2.21,0.24,14:50:07.845
119.4,2626.7,-4.97,-0.96,-10.43,-17.0,743.8,39.905685,32.805295,-93.3,384,0.5,120.9,2.77,-0.07,-0.31,14:50:07.945
123.4,2617.4,-1.23,1.09,-9.46,-17.6,744.7,39.905662,32.805298,-92.1,385,0.7,123.7,-4.38,3.46,-1.71,14:50:08.046
118.2,2608.5,0.95,1.79,-10.14,-17.5,745.5,39.905696,32.80529,-85.6,386,1.5,119.6,-3.55,-1.33,-3.02,14:50:08.146
117.5,2628.2,-2.87,-4.68,-9.31,-17.5,743.8,39.905663,32.805304,-96.4,387,0.9,118.3,-2.32,5.06,0.78,14:50:08.247
120.1,2622.2,2.59,-0.16,-10.15,-17.0,744.3,39.905693,32.805292,-100.4,388,0.9,119.6,2.27,1.82,-6.29,14:50:08.348
115.5,2621.0,-1.09,-1.19,-8.73,-17.6,743.4,39.905698,32.805278,-96.1,389,1.7,113.9,-1.25,0.62,-9.8,14:50:08.449
118.0,2591.1,-2.03,1.06,-9.48,-16.6,746.9,39.90568,32.805288,-104.2,390,0.7,115.9,6.14,9.83,1.95,14:50:08.549
117.3,2605.8,4.06,-2.58,-10.33,-17.0,745.2,39.905694,32.805285,-88.7,391,1.9,116.3,-0.15,-7.09,0.94,14:50:08.650
119.5,2592.4,-1.33,-0.18,-11.37,-17.2,746.3,39.905693,32.805319,-96.8,392,1.2,119.1,-0.09,1.16,2.02,14:50:08.751
117.5,2584.3,1.55,4.75,-10.22,-17.1,748.0,39.905675,32.805264,-93.3,393,0.6,116.8,1.89,2.93,5.23,14:50:08.852
117.3,2577.0,2.57,1.63,-9.24,-16.6,748.0,39.905675,32.805349,-91.1,394,1.2,117.3,8.67,-10.12,14.57,14:50:08.952
115.7,2582.9,-0.92,-2.1,-9.0,-17.1,748.1,39.90569,32.805291,-96.8,395,0.8,114.3,3.59,-4.31,-5.17,14:50:09.053
115.3,2560.7,-1.13,2.05,-10.77,-16.5,750.1,39.905714,32.805301,-102.8,396,2.0,114.5,3.48,9.1,6.16,14:50:09.154
114.0,2560.8,-1.13,-1.28,-9.25,-16.7,749.3,39.905729,32.805298,-97.9,397,1.4,115.0,4.76,-0.97,0.88,14:50:09.255
114.7,2569.9,-0.51,-0.99,-9.85,-17.1,748.9,39.905701,32.805294,-100.6,398,0.9,116.1,-3.3,3.01,0.35,14:50:09.355
116.1,2548.3,0.94,4.09,-9.65,-16.8,750.9,39.905684,32.805299,-91.5,399,0.8,115.0,4.03,6.81,10.48,14:50:09.457
112.5,2549.4,0.54,0.87,-9.37,-16.1,750.8,39.905677,32.805271,-95.5,400,0.7,113.1,-5.16,-1.76,2.4,14:50:09.558
112.1,2544.6,-4.82,-1.02,-11.02,-16.7,751.0,39.905682,32.80532,-91.6,401,0.5,111.6,-5.99,7.12,0.46,14:50:09.658
111.9,2540.0,-3.05,-2.11,-9.5,-16.3,751.1,39.905715,32.805308,-102.9,402,2.0,111.6,8.18,-0.61,-7.17,14:50:09.759
108.4,2530.8,-3.74,-1.74,-10.48,-17.0,753.1,39.905686,32.805331,-97.4,403,0.7,105.7,3.72,-1.8,-3.52,14:50:09.860
112.8,2530.7,-2.34,0.95,-8.76,-16.1,751.8,39.905739,32.805304,-93.3,404,1.8,114.0,0.95,6.44,-2.1,14:50:09.961
111.9,2511.2,4.87,-1.33,-8.3,-17.1,754.9,39.905654,32.805316,-88.7,405,2.0,110.8,-8.21,0.46,2.41,14:50:10.062
107.9,2494.7,-5.09,-0.93,-9.23,-16.6,755.5,39.905661,32.805291,-87.1,406,1.3,108.0,1.48,1.84,-9.45,14:50:10.163
112.8,2504.5,0.15,-0.73,-10.39,-16.4,755.0,39.905697,32.805296,-90.1,407,0.8,112.1,3.59,-5.27,1.26,14:50:10.264
110.1,2506.3,0.18,0.16,-10.57,-17.2,754.5,39.90572,32.805288,-102.7,408,1.2,109.9,-1.08,-2.06,-10.54,14:50:10.365
107.1,2499.6,2.55,-0.28,-10.26,-16.6,754.3,39.905699,32.805303,-93.4,409,0.0,105.9,4.59,1.01,4.41,14:50:10.465
108.8,2479.9,-0.74,-3.07,-8.13,-16.0,757.2,39.905717,32.805315,-98.8,410,1.2,107.5,-4.06,-1.6,-1.24,14:50:10.566
109.0,2478.2,-2.79,2.29,-10.76,-16.1,757.2,39.905731,32.805289,-97.3,411,0.2,108.3,2.48,-2.17,-0.98,14:50:10.667
106.9,2469.5,-0.97,-1.95,-11.25,-16.6,757.7,39.90572,32.805328,-98.5,412,1.2,106.7,-7.82,2.95,-5.18,14:50:10.767
105.2,2455.5,-1.15,0.91,-9.69,-16.3,758.9,39.90571,32.805315,-86.7,413,0.4,105.5,-0.64,0.94,-1.59,14:50:10.868
108.5,2446.0,1.0,-0.68,-11.4,-15.9,761.3,39.905731,32.80531,-103.4,414,0.3,108.3,-2.69,-0.41,-1.8,14:50:10.969
107.3,2446.0,-0.54,-2.0,-9.23,-16.0,759.7,39.905743,32.805314,-91.2,415,0.5,106.1,-3.49,2.91,4.85,14:50:11.069
105.7,2439.9,-3.26,-1.19,-10.24,-16.2,760.3,39.905711,32.805302,-96.7,416,0.2,105.8,-4.6,6.68,2.85,14:50:11.170
110.4,2443.3,-1.99,-6.88,-6.89,-15.4,760.4,39.905709,32.805316,-87.0,417,0.5,110.5,4.93,7.69,-2.51,14:50:11.271
106.2,2433.7,-1.02,1.0,-9.8,-16.1,760.4,39.905716,32.805332,-103.6,418,2.0,106.9,-7.18,7.43,7.74,14:50:11.372
102.6,2434.6,5.39,-0.34,-10.42,-16.2,760.9,39.905696,32.805338,-90.7,419,1.7,101.2,2.09,2.64,0.09,14:50:11.472
104.9,2416.4,-0.17,-3.49,-9.61,-15.9,762.7,39.905708,32.805304,-97.9,420,1.7,103.7,1.57,-1.39,3.33,14:50:11.573
102.3,2403.8,2.63,-1.03,-7.75,-15.5,763.0,39.905695,32.805336,-97.2,421,1.6,101.0,-2.11,-1.06,0.39,14:50:11.674
101.7,2394.8,-5.29,1.11,-8.12,-15.7,764.5,39.905716,32.805304,-104.2,422,0.6,100.8,5.41,-7.94,-4.49,14:50:11.774
102.9,2396.6,2.7,0.12,-9.35,-15.9,764.5,39.905691,32.805329,-99.2,423,1.7,102.3,1.21,-8.58,-3.07,14:50:11.875
103.8,2382.9,-2.48,-3.31,-9.85,-15.9,764.7,39.905701,32.805332,-100.2,424,1.4,103.7,-1.84,3.36,3.08,14:50:11.976
99.2,2370.7,-1.4,-3.48,-8.43,-15.2,766.2,39.905719,32.805332,-85.9,425,0.3,98.2,-1.05,-0.58,-2.79,14:50:12.076
100.0,2364.7,-2.44,-2.66,-9.97,-15.7,767.3,39.905722,32.805349,-92.9,426,1.0,100.3,4.56,3.63,1.07,14:50:12.177
100.9,2351.5,-0.51,-3.13,-10.78,-15.3,768.8,39.905748,32.80535,-104.3,427,0.6,100.1,5.74,3.33,-8.01,14:50:12.278
94.2,2355.8,-3.47,0.07,-9.33,-15.9,766.6,39.905715,32.805317,-95.6,428,0.0,94.4,-1.64,-4.38,-3.33,14:50:12.379
98.0,2340.3,-0.0,0.49,-9.0,-16.0,769.3,39.90574,32.805357,-90.7,429,0.6,98.3,3.22,-8.19,1.53,14:50:12.480
97.9,2326.1,3.39,0.19,-10.74,-15.8,770.6,39.905716,32.805323,-102.9,430,0.5,98.7,-10.76,11.49,-5.31,14:50:12.581
95.8,2329.2,-2.32,1.14,-10.66,-15.3,770.1,39.905709,32.805348,-89.8,431,0.8,96.9,-3.89,5.03,7.1,14:50:12.682
97.3,2329.1,-0.17,-0.77,-10.46,-15.4,769.9,39.90575,32.805316,-86.4,432,1.0,97.3,-0.62,3.71,-6.2,14:50:12.783
95.6,2315.2,1.12,4.21,-8.5,-15.7,771.1,39.905712,32.805342,-85.5,433,0.4,94.4,3.0,-3.3,3.41,14:50:12.884
94.3,2308.8,-2.5,1.39,-12.38,-15.1,772.7,39.905697,32.805314,-93.2,434,0.3,94.9,-4.63,-7.68,0.92,14:50:12.984
98.0,2309.8,1.46,2.18,-10.94,-15.3,772.7,39.905735,32.805344,-96.5,435,1.3,98.6,-0.19,-3.0,4.65,14:50:13.085
94.9,2293.6,-0.96,-1.63,-9.91,-15.7,773.9,39.905748,32.805343,-95.8,436,0.0,93.6,-2.68,-4.23,0.22,14:50:13.186
96.5,2283.3,0.76,0.1,-10.91,-14.9,774.6,39.905744,32.805344,-103.3,437,1.2,96.1,2.33,-3.42,0.23,14:50:13.287
96.0,2263.8,-0.51,1.28,-10.04,-15.1,776.4,39.905758,32.80533,-88.3,438,1.0,97.0,-2.01,2.3,-6.32,14:50:13.388
94.2,2274.4,-2.97,1.75,-10.1,-14.5,775.4,39.905738,32.8053,-94.5,439,0.2,94.0,4.48,-3.56,-0.73,14:50:13.489
94.9,2280.9,-1.03,-1.26,-8.95,-15.7,774.6,39.905671,32.805324,-91.8,440,0.1,92.6,-4.6,-3.14,-9.94,14:50:13.590
94.9,2263.0,-0.72,-0.48,-11.48,-15.6,777.0,39.905731,32.805295,-92.5,441,0.3,95.9,1.38,-0.59,0.89,14:50:13.690
91.2,2246.3,-3.52,1.4,-7.82,-15.1,777.5,39.905709,32.805329,-98.2,442,1.4,90.7,-4.53,-1.97,-4.02,14:50:13.791
91.4,2249.9,-3.47,2.19,-9.16,-15.2,777.4,39.90576,32.805336,-96.3,443,0.2,91.7,-2.22,3.52,5.95,14:50:13.892
88.4,2229.2,-0.53,0.94,-10.37,-15.0,780.1,39.905736,32.805358,-99.5,444,0.9,86.9,0.15,0.83,-1.4,14:50:13.992
91.5,2206.4,1.76,-1.41,-8.02,-15.4,781.8,39.905764,32.805342,-105.0,445,0.4,90.5,2.39,2.37,0.05,14:50:14.093
88.8,2202.1,2.33,-3.91,-10.61,-14.4,781.8,39.905731,32.805342,-94.0,446,0.3,89.2,5.14,-0.06,1.12,14:50:14.194
87.0,2204.5,-0.55,0.14,-11.81,-14.1,781.6,39.905756,32.80535,-96.5,447,1.0,84.9,2.19,0.11,-3.53,14:50:14.294
91.9,2183.0,-3.58,0.35,-10.34,-14.8,783.4,39.905716,32.80535,-98.6,448,0.2,92.7,2.42,-0.78,9.43,14:50:14.395
86.0,2183.8,1.01,3.86,-10.02,-14.4,783.7,39.90581,32.805337,-87.7,449,1.9,84.0,-0.07,-9.23,-0.96,14:50:14.496
86.7,2178.4,-1.46,-2.78,-10.91,-14.4,783.7,39.905794,32.805344,-99.1,450,0.3,89.4,8.39,9.65,2.71,14:50:14.597
86.7,2175.6,1.86,1.19,-7.72,-14.9,783.8,39.905745,32.805336,-98.3,451,1.4,85.3,-3.06,-2.04,-0.46,14:50:14.697
85.4,2171.2,-2.1,3.59,-8.93,-14.1,784.5,39.905784,32.805342,-89.6,452,0.5,83.5,3.29,3.8,0.36,14:50:14.798
87.1,2139.6,1.35,1.95,-9.76,-14.5,787.5,39.905773,32.805358,-89.1,453,1.7,87.1,11.04,-3.22,-0.24,14:50:14.899
85.8,2152.9,3.51,3.04,-10.8,-14.4,787.4,39.905744,32.805356,-85.3,454,0.6,85.7,4.43,0.73,5.17,14:50:15.000
85.1,2126.7,-3.45,-0.37,-11.2,-14.1,789.3,39.905759,32.805361,-96.3,455,1.4,86.2,9.87,6.04,-7.11,14:50:15.100
83.7,2135.5,-0.97,-0.92,-8.79,-14.5,787.9,39.905746,32.805402,-100.8,456,0.9,84.4,-3.61,7.42,4.55,14:50:15.201
81.1,2123.8,-1.75,-1.29,-8.98,-14.6,789.5,39.90575,32.80538,-102.6,457,0.9,81.9,7.42,4.76,5.14,14:50:15.302
81.0,2113.2,0.01,1.62,-8.83,-13.6,790.9,39.905785,32.805369,-90.2,458,0.0,80.8,-5.49,5.16,0.6,14:50:15.402
79.9,2091.8,0.26,-1.45,-10.19,-14.8,791.7,39.905795,32.805332,-100.9,459,1.5,80.2,-0.9,-3.6,4.22,14:50:15.503
83.6,2074.6,2.29,-1.84,-11.71,-14.1,793.8,39.905735,32.805364,-103.9,460,0.4,84.2,-6.1,1.12,-11.6,14:50:15.604
81.8,2089.2,-2.84,-1.17,-9.13,-14.3,791.9,39.905763,32.805341,-88.7,461,0.5,81.1,4.22,2.91,-1.14,14:50:15.705
77.5,2061.7,1.68,-1.59,-11.06,-13.9,795.0,39.905796,32.805383,-99.1,462,0.5,78.4,-4.89,-13.64,7.42,14:50:15.807
81.5,2054.3,0.7,-1.17,-8.66,-13.7,795.6,39.905776,32.805362,-87.9,463,1.2,80.4,-1.31,-4.22,6.59,14:50:15.907
81.9,2063.6,-0.87,1.48,-11.55,-14.2,794.3,39.905801,32.80536,-87.1,464,1.3,81.7,-5.3,-2.59,4.73,14:50:16.008
77.5,2035.2,-0.53,-1.04,-9.07,-13.8,798.1,39.905746,32.805331,-89.2,465,0.4,76.7,-0.45,3.3,-0.36,14:50:16.109
77.9,2029.9,-0.67,-2.04,-9.55,-14.0,797.5,39.905767,32.80535,-88.3,466,1.5,77.5,5.96,-3.32,-6.6,14:50:16.210
76.6,2015.4,2.61,-2.25,-10.68,-13.6,799.1,39.905754,32.805405,-102.7,467,1.7,76.4,-1.07,-0.95,6.08,14:50:16.310
77.3,2029.4,-4.29,3.67,-11.52,-14.1,797.8,39.905805,32.805384,-91.4,468,1.3,75.9,13.26,2.75,-9.48,14:50:16.411
80.6,2025.9,2.24,4.32,-7.59,-13.7,797.6,39.905721,32.805386,-86.8,469,2.0,80.6,-4.73,-2.4,-4.7,14:50:16.512
78.5,1991.2,0.48,0.0,-7.12,-13.6,802.0,39.905769,32.805355,-92.7,470,0.9,76.4,8.07,-2.53,6.26,14:50:16.613
73.1,1976.1,3.12,1.38,-10.96,-13.7,802.4,39.905795,32.805395,-95.7,471,0.0,73.1,1.79,-1.79,9.57,14:50:16.715
74.8,1986.4,0.69,-1.02,-10.54,-13.6,802.4,39.905809,32.805402,-94.3,472,0.2,74.1,1.92,-1.06,2.85,14:50:16.815
72.1,1966.4,4.15,-0.96,-8.83,-12.9,803.1,39.90578,32.805362,-94.4,473,1.2,71.1,2.36,-1.9,5.06,14:50:16.916
73.9,1930.6,1.8,5.48,-8.04,-12.7,807.3,39.905778,32.805375,-104.5,474,1.9,73.6,-3.76,-5.09,1.8,14:50:17.016
72.0,1951.2,-0.54,-1.18,-10.98,-13.3,805.0,39.905761,32.805385,-86.0,475,0.5,72.4,8.11,-2.45,-10.88,14:50:17.117
73.7,1934.0,0.92,-2.65,-10.42,-13.3,808.2,39.905739,32.805373,-95.7,476,1.3,72.9,-1.88,4.95,-4.44,14:50:17.219
73.8,1919.8,0.11,1.12,-11.43,-12.9,808.0,39.905775,32.805361,-97.6,477,0.3,73.5,-0.97,2.84,-3.36,14:50:17.320
71.8,1893.1,-3.1,-0.76,-9.63,-12.7,810.9,39.905758,32.805389,-90.2,478,1.7,72.2,-0.61,-2.99,-7.51,14:50:17.420
67.9,1898.7,3.28,0.11,-9.4,-13.0,810.3,39.905786,32.805365,-103.0,479,0.7,67.6,6.41,-4.26,0.14,14:50:17.521
72.9,1884.2,-0.72,-1.58,-9.76,-12.9,810.8,39.905787,32.805396,-102.3,480,0.4,72.1,5.68,-1.28,5.55,14:50:17.622
69.5,1856.4,-1.14,-0.3,-11.21,-12.8,814.0,39.905789,32.805371,-96.3,481,1.9,69.2,-0.53,6.36,-1.32,14:50:17.722
67.4,1867.0,-1.74,-0.56,-10.3,-12.4,814.1,39.905783,32.805371,-97.3,482,1.1,67.2,8.63,9.1,4.89,14:50:17.823
65.5,1871.3,3.01,0.72,-10.95,-12.9,813.2,39.905792,32.805372,-86.4,483,1.7,67.1,-5.91,6.97,1.42,14:50:17.924
68.8,1840.1,3.02,0.4,-10.44,-12.2,816.9,39.905772,32.805355,-102.5,484,1.7,69.2,-7.85,0.34,-4.34,14:50:18.024
66.6,1846.9,-4.2,-2.07,-11.77,-12.5,815.1,39.905773,32.80539,-86.7,485,1.4,67.3,-5.5,-0.39,4.36,14:50:18.125
67.3,1843.4,-1.32,-0.85,-9.59,-12.7,815.0,39.905775,32.805383,-95.8,486,1.4,66.1,1.32,-3.26,-5.08,14:50:18.225
62.7,1825.9,1.92,0.87,-8.53,-12.2,817.9,39.905785,32.8054,-90.4,487,0.3,60.5,1.16,-3.06,9.74,14:50:18.326
68.3,1788.9,-0.69,-0.79,-9.1,-11.8,822.0,39.905787,32.805376,-101.6,488,0.0,67.4,4.55,-1.32,6.91,14:50:18.427
62.1,1798.2,4.45,-2.4,-10.19,-12.0,820.9,39.905777,32.80538,-104.0,489,0.6,59.7,5.07,1.26,-4.81,14:50:18.527
63.8,1778.7,-2.51,0.39,-10.85,-12.0,821.2,39.905784,32.805375,-85.7,490,0.0,62.8,1.75,-4.78,-3.83,14:50:18.628
61.9,1774.0,-1.27,0.44,-11.12,-12.3,822.2,39.905799,32.805408,-93.2,491,0.2,62.6,-3.29,2.83,-10.9,14:50:18.729
60.7,1765.1,-1.08,-0.92,-10.91,-12.6,823.2,39.905824,32.805387,-90.7,492,1.3,59.2,-3.19,-6.82,-14.24,14:50:18.830
65.0,1744.2,-0.82,0.8,-10.22,-11.9,825.5,39.905834,32.805387,-100.6,493,0.7,65.1,-1.24,-4.8,-3.78,14:50:18.930
61.8,1724.7,-2.07,3.76,-11.44,-11.7,827.2,39.905797,32.805355,-95.7,494,1.0,62.9,-0.36,-5.32,0.79,14:50:19.031
58.3,1734.8,-0.49,5.02,-9.5,-12.1,826.1,39.905801,32.805357,-95.6,495,0.8,57.5,6.24,-0.31,-0.24,14:50:19.132
62.2,1727.0,-2.54,6.05,-9.17,-11.5,827.5,39.905754,32.805375,-100.5,496,1.9,61.3,-3.88,-2.79,0.1,14:50:19.233
61.7,1720.8,1.68,2.82,-8.43,-12.2,828.5,39.905804,32.805396,-100.3,497,1.6,60.8,-0.3,-6.02,1.89,14:50:19.334
58.2,1676.4,-0.18,3.88,-8.42,-11.4,832.3,39.905789,32.805361,-103.2,498,1.1,59.2,2.18,-4.22,-3.6,14:50:19.435
58.5,1677.5,-0.65,-0.23,-10.66,-11.5,831.4,39.905831,32.80537,-102.5,499,1.0,59.3,2.0,-1.97,0.02,14:50:19.536
57.1,1679.0,0.92,-2.59,-9.27,-11.9,831.2,39.905822,32.805379,-94.4,500,0.5,55.8,7.41,-3.81,-4.92,14:50:19.636
59.5,1658.9,-3.36,-3.17,-8.38,-11.4,833.9,39.905813,32.80536,-92.2,501,1.6,59.1,2.0,-5.45,-3.37,14:50:19.737
57.4,1658.9,1.33,1.85,-10.67,-11.2,833.2,39.905762,32.805384,-99.0,502,1.0,58.2,0.02,-11.06,4.19,14:50:19.837
59.3,1637.8,-2.56,2.77,-8.79,-11.2,835.3,39.905823,32.805416,-98.8,503,1.3,59.4,-1.7,-5.66,3.9,14:50:19.938
55.5,1644.7,1.63,-2.3,-9.52,-11.1,835.1,39.905809,32.805385,-102.4,504,1.9,54.0,-6.69,3.54,-5.72,14:50:20.039
58.1,1627.9,-1.2,2.86,-10.41,-11.2,836.4,39.905819,32.805384,-88.9,505,0.5,57.8,-4.38,8.43,-3.32,14:50:20.140
54.7,1598.2,-4.15,-3.51,-8.36,-11.1,839.5,39.905834,32.805372,-93.6,506,0.3,54.1,6.36,-5.88,-4.31,14:50:20.241
52.5,1597.0,2.4,2.02,-8.85,-10.9,838.9,39.90582,32.80542,-102.1,507,0.7,52.7,-9.97,8.24,0.63,14:50:20.341
53.6,1588.3,-4.23,1.44,-9.14,-11.2,841.3,39.905812,32.805401,-88.6,508,0.5,54.4,1.2,-1.78,8.04,14:50:20.442
49.8,1566.4,3.55,-1.5,-7.92,-11.4,842.3,39.905828,32.805371,-95.3,509,1.3,49.4,3.96,6.36,6.35,14:50:20.543
50.4,1550.2,0.96,-2.36,-10.17,-10.8,844.0,39.905778,32.805393,-95.5,510,1.9,50.6,-1.94,-5.18,5.97,14:50:20.644
50.5,1578.2,2.52,2.0,-7.43,-11.5,842.3,39.905818,32.805433,-93.6,511,1.4,51.6,0.95,-2.0,-2.8,14:50:20.744
53.2,1552.8,1.23,-3.77,-11.08,-10.9,844.7,39.905808,32.805449,-102.0,512,0.9,54.2,8.37,0.39,-3.1,14:50:20.845
55.5,1522.2,-2.64,-0.31,-11.87,-10.4,847.3,39.905828,32.80536,-102.8,513,1.7,56.4,-10.54,4.14,-0.22,14:50:20.947
49.2,1511.1,-4.2,3.19,-8.47,-11.0,848.4,39.905804,32.805436,-85.6,514,0.0,49.6,0.29,-2.53,1.55,14:50:21.048
48.1,1509.8,2.63,-3.14,-8.54,-10.5,848.4,39.905816,32.805436,-102.5,515,1.6,45.6,-5.28,-1.86,4.17,14:50:21.148
46.9,1496.6,3.37,0.08,-8.46,-10.1,849.5,39.905823,32.805396,-99.5,516,0.9,45.7,5.09,-2.28,-0.4,14:50:21.249
44.4,1479.4,-0.04,-3.28,-10.53,-10.5,851.2,39.905807,32.805403,-101.3,517,0.5,43.4,-2.23,-0.62,-4.41,14:50:21.350
47.8,1460.0,2.83,0.77,-8.68,-10.5,854.2,39.905806,32.805442,-90.5,518,0.4,46.3,-1.81,6.25,-3.13,14:50:21.450
47.1,1460.4,1.6,3.58,-9.86,-10.4,853.3,39.905794,32.805396,-95.6,519,1.1,46.1,7.76,7.68,4.51,14:50:21.551
44.3,1455.0,1.67,0.74,-10.21,-10.0,853.5,39.90581,32.805406,-87.4,520,1.9,45.0,1.91,2.49,-1.44,14:50:21.652
43.3,1426.6,0.49,1.33,-11.01,-9.6,856.1,39.905883,32.80541,-94.9,521,1.9,44.3,-3.62,2.29,-2.17,14:50:21.753
45.5,1417.6,0.91,-0.13,-9.93,-10.3,858.0,39.905796,32.805387,-93.4,522,1.4,46.0,4.67,-3.46,-1.5,14:50:21.854
47.4,1387.3,-1.19,3.32,-9.98,-10.0,861.3,39.905811,32.805436,-92.3,523,1.6,48.9,-3.44,9.32,-4.41,14:50:21.955
43.3,1397.2,-1.29,-0.98,-8.34,-9.9,859.1,39.905838,32.805384,-89.9,524,0.8,43.1,2.41,-5.99,1.75,14:50:22.056
44.1,1372.1,2.15,-2.59,-6.58,-10.0,861.5,39.905848,32.805421,-100.5,525,0.2,45.2,7.06,4.75,2.16,14:50:22.157
45.6,1376.3,-1.1,-3.19,-12.03,-9.5,861.6,39.905795,32.805454,-98.5,526,0.9,44.6,-1.72,-0.19,-1.19,14:50:22.257
43.5,1371.3,-0.49,-0.89,-10.67,-10.1,862.8,39.905857,32.805437,-96.1,527,0.9,42.1,-9.12,-3.28,-6.04,14:50:22.358
42.6,1357.7,0.97,3.34,-9.97,-9.5,864.9,39.905808,32.805409,-85.6,528,0.8,43.1,-1.16,8.09,-1.32,14:50:22.459
42.9,1331.3,4.68,-1.78,-10.25,-9.6,866.7,39.905824,32.805444,-90.4,529,0.4,42.1,-1.8,-2.16,3.34,14:50:22.560
39.5,1320.7,-5.17,-2.46,-8.33,-9.3,867.7,39.905849,32.805437,-90.5,530,1.9,39.9,-0.61,-1.55,9.83,14:50:22.661
37.4,1297.7,3.28,-3.2,-9.5,-8.7,869.4,39.90584,32.805433,-91.4,531,0.3,36.4,-5.01,-4.61,2.44,14:50:22.761
40.4,1296.5,0.6,5.54,-9.09,-9.2,869.9,39.905818,32.805404,-87.6,532,0.8,38.9,-6.14,-8.6,3.36,14:50:22.862
38.5,1288.8,1.67,1.75,-8.94,-9.4,871.4,39.905815,32.805442,-94.9,533,1.0,38.8,3.2,1.67,2.52,14:50:22.963
38.9,1277.8,2.6,-0.76,-9.41,-9.0,872.2,39.905871,32.805437,-96.5,534,1.1,37.9,1.48,1.33,3.34,14:50:23.064
39.9,1245.6,3.23,-2.18,-7.91,-9.4,875.1,39.905811,32.805383,-88.0,535,1.2,39.6,0.29,-0.16,3.07,14:50:23.165
40.2,1231.7,2.5,-1.08,-9.18,-8.7,876.8,39.905825,32.805428,-86.9,536,1.0,41.0,1.88,9.37,3.76,14:50:23.266
38.3,1226.4,4.43,1.8,-10.5,-9.3,877.4,39.905832,32.805431,-99.0,537,2.0,36.3,1.78,8.21,-7.6,14:50:23.366
37.8,1219.7,1.58,-1.08,-10.32,-8.8,877.6,39.905833,32.805441,-92.9,538,1.6,37.0,-7.88,-9.9,-11.82,14:50:23.467
40.1,1203.0,-2.87,-1.16,-8.68,-8.7,879.2,39.905848,32.80544,-100.9,539,0.6,40.7,2.46,-6.21,0.62,14:50:23.568
36.5,1194.6,2.72,1.12,-10.97,-9.0,880.6,39.905877,32.805419,-99.2,540,1.4,36.4,-4.82,2.22,-4.01,14:50:23.669
33.7,1196.8,-0.69,-2.29,-8.39,-8.5,880.8,39.905838,32.805421,-92.5,541,0.0,34.3,-2.84,-11.98,-12.77,14:50:23.769
29.2,1165.9,0.3,-1.0,-9.78,-8.7,882.6,39.905838,32.805465,-92.8,542,0.3,27.2,2.93,1.14,-5.82,14:50:23.870
35.4,1149.2,3.89,-1.45,-10.04,-7.9,886.1,39.905838,32.805429,-93.4,543,0.6,35.9,-0.37,-9.12,-3.5,14:50:23.970
31.1,1152.6,2.73,-4.26,-9.92,-8.0,884.6,39.905838,32.805442,-104.5,544,1.7,30.9,0.76,-1.8,4.85,14:50:24.071
37.0,1138.7,-1.72,2.54,-11.17,-8.2,886.2,39.90585,32.805447,-85.3,545,0.4,36.8,-6.13,10.59,-0.83,14:50:24.172
34.8,1131.4,0.25,-2.47,-9.16,-8.4,886.9,39.905829,32.805437,-88.0,546,1.1,36.8,-3.1,4.66,4.26,14:50:24.272
31.4,1098.6,-0.31,0.34,-11.74,-8.1,891.3,39.905852,32.805443,-102.0,547,1.8,32.0,-1.83,4.61,0.86,14:50:24.373
32.7,1096.9,-0.74,-0.49,-8.94,-7.8,890.4,39.905836,32.805429,-86.2,548,1.7,31.3,-3.28,-3.66,-2.39,14:50:24.474
33.0,1069.0,-0.51,-1.33,-10.13,-7.8,894.4,39.905823,32.805461,-100.2,549,1.6,32.9,5.41,-4.32,2.25,14:50:24.575
32.7,1067.1,1.67,0.61,-9.8,-8.0,893.2,39.905873,32.805434,-104.8,550,1.4,31.7,-5.11,0.56,3.89,14:50:24.676
33.9,1051.6,2.88,1.45,-8.71,-7.4,896.0,39.905866,32.805433,-87.8,551,1.4,33.4,2.62,7.91,5.02,14:50:24.776
32.7,1034.1,1.63,3.81,-10.09,-7.9,897.1,39.90587,32.805404,-92.4,552,0.1,33.1,-1.92,0.2,-4.87,14:50:24.877
29.8,1018.6,-0.93,-1.52,-11.63,-7.6,897.9,39.90587,32.805457,-101.7,553,0.7,28.7,6.47,-8.43,5.3,14:50:24.978
31.9,1022.4,-1.21,-0.82,-9.42,-7.4,897.6,39.905843,32.80547,-91.8,554,1.5,30.7,-4.04,-4.79,1.06,14:50:25.079
25.7,1002.7,4.6,-1.89,-9.3,-7.8,899.4,39.905858,32.805469,-92.4,555,0.4,26.3,-6.35,2.01,-4.73,14:50:25.179
27.9,979.9,2.5,-0.31,-9.89,-6.8,903.6,39.905875,32.805452,-86.2,556,0.5,25.7,5.46,3.23,-4.05,14:50:25.280
27.8,982.5,3.66,0.65,-9.14,-7.5,902.9,39.905861,32.805452,-95.5,557,0.3,27.4,-3.42,4.58,1.09,14:50:25.381
28.8,958.4,2.33,-4.62,-10.77,-7.3,905.3,39.905861,32.805439,-103.2,558,1.9,28.5,-4.5,6.68,5.16,14:50:25.482
28.9,938.9,-1.14,2.83,-11.1,-7.2,908.4,39.905846,32.80544,-100.0,559,0.9,28.3,6.55,5.18,7.38,14:50:25.583
26.4,932.1,3.13,-0.57,-10.47,-7.1,908.8,39.905865,32.805454,-95.4,560,1.9,25.7,1.93,-0.17,-4.31,14:50:25.684
25.9,939.2,-0.14,-0.08,-9.9,-7.3,907.0,39.905872,32.805462,-92.7,561,0.5,25.4,-2.87,-1.2,-1.23,14:50:25.785
21.2,908.6,3.82,-1.01,-8.64,-6.7,910.5,39.905893,32.805463,-88.2,562,1.7,22.7,-3.17,2.27,-5.46,14:50:25.886
23.0,920.5,4.8,1.1,-11.06,-7.1,909.6,39.905855,32.805477,-85.6,563,0.7,21.6,-0.24,-1.49,-2.82,14:50:25.986
24.6,887.5,4.35,0.35,-9.83,-7.4,912.4,39.905852,32.805491,-97.7,564,1.8,24.0,2.87,-12.43,0.01,14:50:26.087
20.0,875.2,-6.44,-3.98,-11.2,-6.4,914.4,39.90588,32.805463,-102.3,565,1.8,19.9,3.12,2.44,9.51,14:50:26.188
20.0,861.5,-0.94,4.11,-8.38,-6.3,916.2,39.905843,32.805446,-85.5,566,1.6,20.2,2.98,-2.21,-2.02,14:50:26.289
20.5,844.7,1.18,-0.62,-8.72,-6.9,917.4,39.905883,32.805462,-99.4,567,1.9,21.5,-9.02,3.78,5.01,14:50:26.389
19.4,831.7,-2.4,1.94,-10.81,-6.4,918.8,39.905848,32.805455,-88.2,568,1.1,19.5,-0.67,2.89,-1.69,14:50:26.490
19.1,808.0,3.3,-0.74,-9.09,-6.4,920.9,39.905908,32.805452,-100.7,569,1.2,19.0,-3.15,-5.32,-4.29,14:50:26.591
21.5,806.0,-2.1,1.72,-11.56,-6.5,920.9,39.905855,32.805496,-101.7,570,1.1,20.1,-0.38,7.31,-12.7,14:50:26.692
19.1,778.8,3.82,0.16,-7.81,-5.8,924.7,39.905869,32.805478,-88.2,571,0.5,19.0,3.11,-3.37,0.51,14:50:26.793
22.3,766.1,2.02,0.07,-9.45,-6.0,926.8,39.905864,32.805459,-103.8,572,0.3,21.8,0.32,-2.66,-4.33,14:50:26.894
20.0,753.5,-2.08,-3.87,-8.72,-6.2,927.4,39.905867,32.805474,-96.1,573,0.1,20.2,8.01,11.12,1.86,14:50:26.995
19.5,754.4,-0.3,1.89,-10.75,-5.9,926.3,39.905861,32.805467,-99.6,574,0.3,19.0,2.74,1.0,4.04,14:50:27.095
16.9,738.6,-2.52,-0.61,-10.19,-5.5,928.9,39.905852,32.805484,-93.9,575,1.5,17.3,4.82,-8.2,0.41,14:50:27.196
18.0,729.0,-2.14,2.05,-9.32,-5.6,930.3,39.905878,32.805495,-103.5,576,0.9,19.4,-4.23,-2.06,-1.7,14:50:27.297
18.5,719.4,0.56,-0.18,-11.84,-5.4,930.1,39.90589,32.805447,-104.7,577,1.1,17.6,-0.25,2.99,-0.35,14:50:27.398
21.3,696.6,-3.15,-1.65,-9.49,-6.1,933.5,39.905878,32.805441,-103.8,578,0.4,21.5,4.96,-1.32,-3.71,14:50:27.499
16.9,673.2,0.34,2.26,-9.74,-5.7,935.9,39.905881,32.80551,-86.8,579,1.6,17.2,6.06,7.04,-7.94,14:50:27.600
19.0,661.1,5.33,-1.86,-9.95,-5.3,936.8,39.905859,32.805493,-89.6,580,0.4,19.1,-4.36,-4.15,2.24,14:50:27.700
10.6,658.7,0.31,1.65,-9.02,-5.5,937.1,39.905854,32.805502,-102.5,581,1.7,11.4,3.62,5.54,-4.83,14:50:27.801
15.9,640.7,3.19,3.52,-9.63,-5.4,940.3,39.905905,32.805518,-85.6,582,1.7,14.8,-0.85,6.23,-0.41,14:50:27.902
18.5,624.3,2.58,-3.6,-10.55,-5.4,942.0,39.905887,32.805482,-101.4,583,1.7,17.8,0.87,0.37,-3.53,14:50:28.003
16.9,605.4,2.05,1.53,-11.95,-4.8,943.3,39.905869,32.80549,-93.8,584,1.0,15.6,3.75,5.41,-11.74,14:50:28.104
15.8,603.8,-0.11,2.6,-7.49,-5.4,943.3,39.90592,32.805465,-97.4,585,0.2,16.5,12.39,-0.22,5.42,14:50:28.205
15.4,584.2,4.56,2.59,-9.18,-5.2,945.8,39.905861,32.805455,-101.0,586,0.2,14.4,-5.06,4.04,-2.66,14:50:28.305
16.1,567.2,-0.38,-2.07,-9.51,-5.0,947.6,39.905871,32.805478,-99.0,587,0.7,15.7,2.14,4.41,-5.64,14:50:28.406
13.3,580.6,2.21,-0.08,-12.54,-4.7,946.0,39.905907,32.805492,-99.0,588,0.5,13.5,2.19,0.46,-2.5,14:50:28.507
13.3,548.8,1.18,2.46,-10.1,-4.6,949.3,39.905921,32.805464,-96.6,589,1.8,14.5,2.94,5.14,7.33,14:50:28.607
13.8,531.8,-1.25,-2.01,-9.03,-4.8,952.4,39.905873,32.805502,-88.5,590,0.6,15.0,-2.7,0.09,2.92,14:50:28.708
13.5,498.8,2.36,0.6,-10.77,-4.4,955.1,39.905885,32.805467,-94.9,591,1.4,13.0,2.74,2.97,0.43,14:50:28.809
9.9,504.2,1.22,0.18,-9.67,-4.8,954.4,39.90588,32.805474,-89.0,592,1.7,9.9,-5.77,-0.43,-6.68,14:50:28.910
10.3,490.7,-4.27,-3.5,-11.64,-4.8,957.3,39.905872,32.805516,-97.1,593,1.1,9.4,-6.14,-2.33,-1.79,14:50:29.010
12.0,470.3,1.03,3.77,-10.71,-4.2,958.9,39.905898,32.805503,-92.4,594,1.6,12.2,-0.26,-10.06,1.13,14:50:29.111
13.5,485.6,-4.18,-1.02,-8.79,-4.1,957.8,39.905908,32.805465,-97.4,595,1.0,14.8,3.93,5.24,3.3,14:50:29.211
8.8,449.6,4.74,1.35,-9.3,-4.6,961.4,39.90591,32.805509,-102.9,596,1.5,8.3,2.43,5.52,-8.2,14:50:29.312
11.1,454.9,5.83,0.58,-9.91,-4.9,960.3,39.90589,32.805489,-100.5,597,0.6,9.9,2.47,10.43,7.6,14:50:29.413
9.9,408.8,2.78,-0.11,-11.05,-4.2,965.9,39.905911,32.805524,-100.7,598,0.4,10.9,-10.98,9.66,-4.89,14:50:29.514
8.6,401.2,5.09,-3.16,-11.2,-4.0,966.5,39.905905,32.805521,-85.1,599,0.9,9.2,4.66,-1.14,-2.93,14:50:29.615
9.6,398.2,1.48,1.81,-10.22,-4.0,967.1,39.905904,32.805498,-93.7,600,0.8,10.6,4.19,-2.66,-6.55,14:50:29.716
11.1,388.5,-2.32,4.2,-11.04,-3.3,967.6,39.905883,32.805491,-85.9,601,0.8,10.6,-0.53,-2.35,-0.31,14:50:29.817
8.7,378.3,-0.48,2.55,-8.22,-3.2,968.9,39.905892,32.80555,-85.7,602,1.8,10.0,7.26,-6.58,-9.42,14:50:29.918
8.1,337.7,-2.19,-3.46,-10.5,-3.8,973.8,39.905896,32.805493,-91.9,603,2.0,9.4,-2.16,1.07,-2.22,14:50:30.018
8.3,338.6,1.66,0.48,-11.04,-3.0,973.3,39.905908,32.805502,-95.5,604,0.1,9.1,-4.22,5.63,8.4,14:50:30.119
6.4,347.2,0.47,-2.3,-8.32,-3.2,972.9,39.905914,32.80553,-96.2,605,0.5,6.9,3.18,-6.43,-1.39,14:50:30.220
6.2,306.6,-0.59,1.81,-9.13,-3.6,977.0,39.905878,32.805513,-102.3,606,0.9,4.5,-0.22,5.0,5.73,14:50:30.320
5.7,302.4,-2.89,-1.92,-10.64,-2.6,977.3,39.905885,32.805545,-99.0,607,0.3,4.6,6.36,3.76,-3.96,14:50:30.422
7.6,283.0,-6.61,0.23,-10.8,-2.9,980.3,39.905929,32.805513,-96.1,608,2.0,6.8,-5.15,-2.24,7.68,14:50:30.523
7.8,262.5,0.32,-4.26,-9.64,-2.9,981.6,39.905925,32.805489,-94.4,609,1.0,8.1,-6.54,2.55,-8.65,14:50:30.624
7.4,236.3,2.73,3.68,-10.61,-3.1,985.7,39.905892,32.805536,-98.0,610,1.0,8.9,1.42,2.37,5.84,14:50:30.724
5.7,237.7,-0.4,5.16,-10.73,-3.3,985.6,39.905936,32.805512,-85.6,611,1.8,8.7,-1.45,4.57,6.18,14:50:30.826
3.4,234.0,0.57,0.18,-11.47,-2.9,986.5,39.905942,32.805482,-102.2,612,1.9,2.6,-3.07,8.38,3.24,14:50:30.926
1.4,218.7,-0.54,-0.5,-9.9,-2.7,986.1,39.905916,32.805498,-86.8,613,1.9,4.2,-0.62,1.35,-5.03,14:50:31.027
6.7,192.7,-1.74,5.41,-7.77,-2.4,990.9,39.905907,32.805504,-86.5,614,0.7,4.3,1.8,-6.64,3.04,14:50:31.128
2.5,208.8,-1.43,-1.99,-10.34,-2.5,987.9,39.905886,32.805525,-97.5,615,1.7,2.2,-5.08,3.66,-9.57,14:50:31.228
4.6,180.4,-6.92,0.44,-10.68,-2.6,992.5,39.905946,32.805513,-101.4,616,1.4,4.3,-0.91,4.91,-8.33,14:50:31.329
4.8,149.6,1.38,-0.63,-9.93,-2.8,995.1,39.905889,32.805547,-98.9,617,1.4,4.6,-3.12,6.8,2.67,14:50:31.430
5.1,149.1,0.59,-1.48,-9.81,-2.7,995.5,39.905917,32.805526,-88.3,618,0.7,4.7,7.87,-2.54,-4.89,14:50:31.531
4.1,114.7,-0.53,3.02,-7.57,-2.3,1000.0,39.905938,32.805536,-102.8,619,1.6,3.1,2.58,10.19,-0.45,14:50:31.632
4.9,132.8,5.03,-1.2,-10.81,-1.8,997.8,39.905887,32.805502,-87.5,620,1.5,4.6,2.34,5.17,1.45,14:50:31.732
0.7,106.6,-0.02,0.16,-8.13,-1.7,1000.8,39.905926,32.805556,-89.1,621,1.2,0.4,-6.56,1.37,4.06,14:50:31.833
2.6,69.3,1.07,-1.24,-9.46,-1.9,1005.6,39.905921,32.805534,-99.9,622,0.2,3.3,2.14,-1.77,-8.68,14:50:31.934
0,51.3,-2.03,-1.33,-8.24,-2.8,1007.1,39.905909,32.805509,-87.5,623,0.7,0.3,-3.38,-2.58,0.56,14:50:32.035
4.6,75.2,3.46,1.23,-8.81,-1.4,1004.6,39.905905,32.805481,-98.8,624,1.3,4.6,-5.51,-1.34,0.7,14:50:32.135
1.9,49.3,0.69,4.71,-9.45,-1.8,1008.1,39.905908,32.805503,-95.4,625,1.6,2.2,-4.87,3.49,-1.15,14:50:32.236
0.6,41.3,-1.72,2.18,-9.56,-2.0,1008.1,39.905937,32.805529,-104.8,626,1.1,1.0,-7.6,3.1,-4.01,14:50:32.336
0.9,19.3,3.87,1.03,-9.79,-1.9,1011.3,39.905943,32.805517,-89.1,627,0.9,0.7,4.96,-4.14,-2.24,14:50:32.437
3.4,0,2.11,-0.85,-9.18,-1.8,1013.7,39.905959,32.805516,-104.1,628,0.6,4.0,4.13,5.66,7.33,14:50:32.538
1.2,7.8,2.88,-3.78,-9.91,-1.7,1012.7,39.905926,32.805523,-99.9,629,1.0,1.0,-2.14,-2.76,-0.73,14:50:32.639
0,0,0.36,3.57,-11.27,-1.5,1013.9,39.905926,32.805494,-93.6,630,0.6,0.9,7.08,-0.65,-1.2,14:50:32.739
0,0,-1.25,-3.71,-9.35,-1.9,1013.2,39.905925,32.805542,-102.4,631,1.5,-0.5,-6.3,-1.93,-10.56,14:50:32.840
0,0,-0.35,-1.54,-8.09,-1.9,1013.1,39.905908,32.805542,-92.7,632,0.5,1.3,14.36,-3.13,1.08,14:50:32.941
0,0,2.38,-2.28,-9.69,-1.3,1013.3,39.905936,32.805577,-99.8,633,1.5,-0.3,-4.79,2.94,-1.51,14:50:33.042
0,0,-1.25,2.49,-10.09,-1.0,1013.8,39.90593,32.805501,-95.8,634,0.6,0.7,-9.62,-1.49,2.29,14:50:33.142
1.9,0,0.73,-5.17,-8.71,-1.6,1013.6,39.905968,32.805541,-103.9,635,0.4,2.8,4.13,2.8,-1.03,14:50:33.243
0,0,7.35,1.71,-8.15,-1.9,1013.9,39.905944,32.80551,-93.2,636,2.0,0.8,2.78,-5.42,1.57,14:50:33.343
0,0,-0.77,-4.64,-8.48,-1.1,1012.5,39.905931,32.805538,-94.6,637,0.2,-0.9,-3.37,11.36,2.91,14:50:33.444
0,0,1.93,1.83,-9.8,-1.9,1013.2,39.905936,32.805562,-102.0,638,0.3,-0.4,-1.18,10.52,-7.64,14:50:33.545
0,0,-2.65,-0.49,-9.93,-1.7,1013.0,39.905929,32.805528,-91.9,639,1.3,0.4,-1.44,2.44,-0.58,14:50:33.646
0,0,3.31,1.57,-11.2,-1.5,1012.8,39.905952,32.805552,-95.7,640,1.4,2.8,0.39,-4.8,-2.59,14:50:33.746
0,0,-0.85,0.65,-11.85,-1.4,1012.8,39.905938,32.805535,-100.3,641,0.2,-1.0,-0.38,1.01,0.43,14:50:33.847
0,0,-4.07,1.22,-10.18,-1.6,1013.0,39.905958,32.80553,-104.7,642,0.5,1.1,6.88,1.77,3.09,14:50:33.948
0,0,5.25,-1.02,-10.08,-1.7,1013.4,39.905946,32.805504,-86.5,643,0.0,-0.1,-3.68,4.7,0.41,14:50:34.049
0,0,-1.23,1.99,-8.3,-1.4,1013.1,39.905967,32.805503,-94.1,644,1.0,1.2,-6.04,-0.88,-3.71,14:50:34.149
0,0,1.28,0.56,-9.98,-1.3,1013.4,39.905952,32.805553,-94.0,645,0.3,-0.3,-3.64,1.44,-0.87,14:50:34.250
0,0,1.71,0.4,-10.26,-1.5,1013.4,39.90594,32.805511,-87.3,646,0.0,0.6,-4.08,-3.17,-8.1,14:50:34.351
0,0,3.08,-2.56,-9.71,-1.4,1014.3,39.905994,32.805533,-97.2,647,1.8,-0.1,3.51,4.03,9.81,14:50:34.452
0,0,1.76,-0.32,-9.81,-1.8,1012.7,39.905961,32.805565,-99.3,648,0.7,-0.6,-4.78,-7.76,-2.58,14:50:34.552
0,0,1.21,-0.69,-8.59,-1.3,1013.1,39.905945,32.805548,-89.0,649,0.5,1.2,6.12,0.68,5.03,14:50:34.653
0,0,0.7,-2.26,-11.1,-1.8,1012.9,39.905947,32.805567,-94.9,650,1.7,0.6,0.97,1.32,1.89,14:50:34.754
0,0,-1.4,-0.89,-9.55,-1.5,1013.4,39.905912,32.805545,-88.5,651,0.5,-0.4,4.51,-6.2,-0.28,14:50:34.855
0,0,-0.1,3.41,-8.87,-1.7,1013.1,39.905959,32.805563,-88.6,652,0.3,1.3,-3.81,-5.31,-1.92,14:50:34.956
0,0,-2.18,-0.61,-9.62,-1.6,1012.7,39.905925,32.805541,-101.5,653,0.1,0.1,-3.4,-7.26,-0.67,14:50:35.056
0,0,0.05,2.09,-9.77,-1.4,1012.9,39.905942,32.805588,-95.7,654,1.4,-1.0,-0.79,3.29,3.99,14:50:35.157
0,0,0.38,2.33,-9.48,-1.7,1013.3,39.90594,32.805563,-94.6,655,0.9,-0.6,-8.5,-4.2,-1.68,14:50:35.258
0,0,4.91,-0.85,-8.38,-1.6,1013.3,39.905976,32.805543,-105.0,656,1.3,-1.0,-0.62,0.56,1.76,14:50:35.359
0,0,-0.36,-2.05,-9.13,-1.5,1013.6,39.905976,32.805529,-85.3,657,1.1,1.0,3.81,-1.82,0.93,14:50:35.459
0,0,-0.23,4.83,-10.55,-1.6,1013.1,39.905973,32.805553,-99.6,658,1.8,1.4,-9.29,-0.75,9.88,14:50:35.560
0,0,3.55,-1.26,-10.12,-1.8,1012.8,39.905967,32.805533,-89.0,659,0.7,0.8,-1.78,-8.31,5.89,14:50:35.660
0,0,1.45,1.03,-10.31,-1.8,1013.8,39.905929,32.805533,-95.7,660,0.4,-0.0,11.21,-9.68,2.69,14:50:35.762
0,0,-1.01,-4.55,-9.25,-1.3,1012.6,39.90599,32.805555,-86.6,661,1.4,-0.3,6.5,4.16,-6.32,14:50:35.863
0,0,-0.97,-1.17,-9.0,-1.3,1013.0,39.905915,32.805564,-93.8,662,1.1,0.9,-9.51,-4.72,-2.89,14:50:35.964
0,0,-1.13,-3.54,-8.65,-1.8,1013.3,39.905999,32.805595,-91.4,663,0.5,-2.0,5.78,-0.33,-3.15,14:50:36.065
0,0,-0.85,-0.5,-10.01,-1.6,1013.9,39.906011,32.805589,-98.5,664,0.1,0.4,9.02,3.42,-3.08,14:50:36.165
0,0,-1.92,-2.91,-9.36,-1.2,1013.3,39.905947,32.805582,-88.1,665,0.2,-0.2,-1.62,-0.87,-5.12,14:50:36.266
0,0,3.21,1.56,-9.43,-1.5,1013.2,39.905939,32.805563,-94.0,666,2.0,0.8,3.04,4.39,3.51,14:50:36.366
0,0,-1.35,-1.16,-10.85,-1.7,1013.2,39.905993,32.805555,-92.7,667,0.1,0.5,2.22,5.64,7.2,14:50:36.467
0,0,1.25,1.03,-9.65,-1.3,1013.0,39.905957,32.805552,-92.4,668,0.4,-0.1,-9.14,-9.78,-2.14,14:50:36.568
0,0,3.17,2.53,-10.87,-1.4,1013.3,39.905996,32.805554,-87.3,669,2.0,0.2,-8.36,-8.05,5.27,14:50:36.669
0,0,-1.4,-2.47,-8.28,-2.0,1013.2,39.90596,32.805552,-104.4,670,0.4,-0.2,0.37,-0.63,0.81,14:50:36.770
0,0,-2.24,1.32,-10.57,-0.7,1013.5,39.905975,32.805579,-92.7,671,1.5,0.2,-3.22,-7.24,2.52,14:50:36.871
0,0,-1.96,-1.82,-9.73,-1.8,1012.9,39.905966,32.8056,-104.7,672,0.5,-2.3,2.16,8.04,2.94,14:50:36.972
0,0,0.63,3.39,-9.68,-1.7,1012.8,39.905951,32.80557,-91.4,673,0.1,0.8,2.16,-3.2,6.4,14:50:37.073
0,0,-0.52,-1.61,-8.91,-1.7,1013.2,39.906007,32.805565,-100.4,674,1.3,-0.9,-3.3,-5.46,-7.91,14:50:37.174
0,0,-3.72,1.49,-10.67,-1.2,1013.8,39.90598,32.805548,-101.4,675,1.3,-0.2,-3.57,-4.44,0.51,14:50:37.274
0,0,7.4,0.89,-8.48,-1.2,1013.9,39.905972,32.805554,-90.6,676,1.8,-0.5,2.07,-1.39,0.13,14:50:37.375
0,0,0.27,1.33,-9.24,-1.6,1013.0,39.90598,32.805569,-94.0,677,0.1,-0.9,0.8,-7.68,-1.7,14:50:37.476
0,0,0.23,0.33,-10.83,-1.6,1013.2,39.905965,32.805589,-97.2,678,1.2,-0.9,-3.08,1.58,2.81,14:50:37.576
0,0,-4.1,0.54,-10.71,-1.4,1013.3,39.905998,32.805575,-103.4,679,0.3,-2.3,-0.45,-4.5,0.75,14:50:37.677
0,0,-3.59,-1.16,-8.73,-1.2,1013.0,39.906002,32.805554,-97.2,680,1.1,-1.5,1.8,-3.31,8.88,14:50:37.777
0,0,-0.7,-0.26,-9.59,-1.6,1013.7,39.906007,32.805579,-88.2,681,1.7,-0.6,-9.95,4.87,-0.49,14:50:37.878
0,0,1.73,2.05,-9.45,-1.7,1014.0,39.906007,32.805605,-94.7,682,0.4,0.1,-4.3,2.94,5.07,14:50:37.979
0,0,0.84,2.07,-10.46,-1.3,1013.3,39.90602,32.80559,-94.6,683,0.7,-1.1,0.68,-5.96,6.97,14:50:38.080
0,0,-1.86,1.74,-7.99,-1.7,1013.1,39.905966,32.805578,-102.1,684,0.6,-0.5,-4.09,-0.54,1.33,14:50:38.181
0,0,-0.4,-3.02,-7.62,-1.4,1013.4,39.905976,32.805604,-99.9,685,1.6,-1.3,5.99,2.08,-12.24,14:50:38.281
0,0,-0.35,0.61,-10.97,-1.3,1013.3,39.906019,32.805581,-90.5,686,2.0,-0.6,-1.03,-4.12,-2.74,14:50:38.382
0,0,-1.65,-1.66,-9.88,-2.3,1013.4,39.905978,32.805595,-101.3,687,1.4,0.3,1.25,3.13,-2.02,14:50:38.483
0,0,5.31,0.56,-12.07,-1.7,1013.5,39.905975,32.805622,-100.3,688,1.0,0.8,-6.47,-1.63,4.09,14:50:38.583
0,0,-0.07,3.43,-7.28,-1.3,1013.2,39.905982,32.805582,-95.0,689,1.9,0.1,-4.28,6.29,7.05,14:50:38.684
0,0,2.63,-3.22,-8.8,-1.3,1013.4,39.90597,32.805611,-95.7,690,0.5,1.0,0.18,-5.93,-0.49,14:50:38.785
0,0,-1.77,1.26,-10.53,-1.5,1013.7,39.906017,32.805604,-88.5,691,1.1,0.8,0.98,-2.85,-2.39,14:50:38.885
0,0,-1.7,1.71,-9.88,-1.8,1013.4,39.905972,32.805609,-102.1,692,1.1,0.5,-8.47,-10.79,-3.04,14:50:38.986
0,0,-0.81,-0.57,-11.73,-1.2,1012.8,39.906022,32.80559,-102.8,693,0.2,1.4,-3.41,-0.23,-3.72,14:50:39.087
0,0,0.36,-4.16,-9.22,-1.6,1013.3,39.906,32.805598,-89.5,694,0.4,-1.4,-7.42,-5.61,7.17,14:50:39.187
0,0,0.66,-0.16,-6.89,-1.5,1013.4,39.905967,32.80561,-92.5,695,0.4,-0.3,6.45,-0.5,-7.56,14:50:39.288
0,0,-2.8,3.05,-10.38,-2.1,1012.9,39.90601,32.805601,-102.6,696,0.1,0.3,9.73,7.37,1.03,14:50:39.389
0,0,-0.17,1.82,-8.23,-1.5,1013.8,39.906002,32.80559,-95.4,697,0.3,0.4,7.33,6.17,-4.04,14:50:39.489
0,0,-1.91,6.11,-12.4,-1.5,1013.1,39.905989,32.805588,-90.8,698,0.9,-0.5,1.0,-5.83,0.72,14:50:39.590
0,0,0.2,-1.7,-10.77,-1.3,1012.8,39.906032,32.805606,-89.7,699,0.3,0.9,6.84,-1.49,9.33,14:50:39.691
0,0,-2.21,0.62,-11.09,-1.3,1013.1,39.905969,32.805601,-88.7,700,0.0,1.5,-0.01,-8.45,0.87,14:50:39.791
0,0,3.43,-1.46,-9.16,-1.9,1012.9,39.90603,32.805613,-95.3,701,1.9,1.7,-6.03,-4.74,-0.9,14:50:39.892
0,0,3.08,0.67,-8.88,-1.8,1013.7,39.905973,32.805609,-93.4,702,1.9,-0.5,0.56,3.44,12.59,14:50:39.993
0,0,-1.42,2.22,-7.7,-1.0,1013.1,39.906015,32.805613,-89.0,703,1.2,-2.7,6.18,3.64,-4.29,14:50:40.094
0,0,0.89,-0.98,-6.86,-2.0,1012.9,39.906009,32.805628,-99.4,704,0.3,1.0,-4.11,0.49,4.39,14:50:40.195
0,0,1.7,-1.51,-9.29,-1.2,1013.8,39.905988,32.805613,-93.5,705,1.9,-0.8,-3.37,4.32,-8.77,14:50:40.296
0,0,1.55,3.24,-10.13,-0.8,1013.9,39.905975,32.805597,-91.5,706,1.0,0.8,4.21,-8.08,5.13,14:50:40.396
0,0,-0.51,0.19,-9.4,-1.6,1013.3,39.905999,32.805601,-99.3,707,0.9,-2.5,-1.76,0.56,-4.94,14:50:40.497
0,0,-2.91,0.8,-7.54,-1.6,1013.6,39.906,32.805574,-90.8,708,1.8,0.1,1.25,-7.04,1.8,14:50:40.598
0,0,-1.08,-1.16,-11.45,-1.4,1014.3,39.906028,32.805621,-90.6,709,1.6,-0.3,4.74,5.06,-1.14,14:50:40.699
0,0,3.4,-1.55,-10.44,-0.7,1013.4,39.906004,32.805589,-91.8,710,1.3,-1.9,1.41,0.51,5.95,14:50:40.799
0,0,1.13,1.81,-7.75,-1.2,1013.2,39.905989,32.805646,-93.2,711,1.0,0.1,-0.23,-2.75,5.21,14:50:40.900
0,0,2.56,-0.59,-10.04,-1.4,1013.1,39.906021,32.805619,-88.9,712,0.2,-0.5,0.02,-4.75,-3.82,14:50:41.001
0,0,0.62,-0.21,-10.86,-1.2,1013.6,39.905993,32.805574,-88.0,713,0.9,-0.5,-1.06,2.02,-3.28,14:50:41.102
0,0,-1.08,2.33,-10.93,-1.5,1013.7,39.905999,32.80563,-100.3,714,0.1,0.8,-5.8,-10.57,-0.79,14:50:41.203
0,0,-3.45,1.31,-7.7,-1.5,1012.5,39.906005,32.805626,-86.2,715,1.6,0.8,-1.33,3.59,3.19,14:50:41.303
0,0,2.57,-2.62,-9.24,-1.6,1012.8,39.906002,32.805639,-99.2,716,2.0,-0.7,6.12,2.47,4.8,14:50:41.404
0,0,1.64,1.93,-10.23,-1.7,1013.2,39.906023,32.805611,-99.9,717,0.6,-0.2,-0.04,-0.7,8.43,14:50:41.505
0,0,1.15,-1.57,-8.87,-1.1,1013.4,39.905994,32.805612,-103.7,718,1.1,0.7,10.49,-4.91,-3.11,14:50:41.605
0,0,-1.68,-1.58,-9.65,-1.3,1013.1,39.906016,32.805619,-86.9,719,0.2,0.9,15.61,-0.97,5.73,14:50:41.706
0,0,-0.99,-1.39,-10.19,-1.7,1012.9,39.906019,32.80562,-85.1,720,1.3,-1.5,-0.75,1.3,-1.9,14:50:41.807
0,0,-2.02,-4.18,-10.32,-1.5,1014.2,39.906028,32.805637,-103.8,721,0.3,1.9,-2.86,-1.15,8.74,14:50:41.908
0,0,0.27,-2.09,-11.33,-1.6,1013.6,39.90602,32.805606,-100.1,722,0.4,1.1,1.58,3.09,-1.69,14:50:42.009
0,0,3.68,1.94,-9.98,-1.7,1013.9,39.906035,32.805632,-98.5,723,1.2,-0.3,3.13,-4.8,-0.36,14:50:42.110
0,0,-3.46,1.03,-10.38,-1.2,1012.9,39.906046,32.805652,-87.7,724,1.0,-0.3,8.47,-2.67,-2.21,14:50:42.211
0,0,-0.21,1.4,-10.47,-1.6,1013.2,39.906005,32.805623,-99.0,725,1.7,-0.8,-3.32,5.04,3.85,14:50:42.311
0,0,-0.47,-1.13,-10.01,-1.9,1012.7,39.906029,32.805641,-89.7,726,0.1,-1.2,-7.22,10.81,10.31,14:50:42.412
0,0,1.88,-1.52,-9.73,-1.7,1012.7,39.906005,32.805607,-88.5,727,1.3,0.2,-6.11,7.12,0.04,14:50:42.513
0,0,-1.34,-2.22,-10.32,-1.3,1013.6,39.906052,32.805616,-100.9,728,1.9,-0.9,4.63,4.92,0.03,14:50:42.613
0,0,-1.5,1.35,-9.84,-1.3,1013.1,39.90603,32.805637,-101.8,729,1.0,0.8,-3.79,5.31,5.9,14:50:42.714
0,0,-1.78,1.89,-10.14,-1.9,1013.5,39.906064,32.805649,-101.5,730,0.7,0.3,-1.25,1.55,3.9,14:50:42.815
0,0,-0.1,-3.49,-10.63,-1.5,1012.6,39.906056,32.805628,-88.5,731,1.3,-0.8,-0.91,3.12,-5.31,14:50:42.916
0,0,2.12,-7.01,-11.0,-1.6,1013.0,39.906064,32.80568,-88.5,732,0.8,0.7,1.44,6.9,-3.74,14:50:43.017
0,0,0.94,-2.62,-9.69,-1.4,1013.5,39.906026,32.805647,-98.2,733,0.7,-0.7,1.63,-8.44,7.86,14:50:43.118
0,0,-0.58,-3.64,-10.52,-1.6,1012.2,39.906002,32.805643,-85.4,734,1.2,0.1,-13.94,-1.41,-0.62,14:50:43.219
0,0,-4.26,0.18,-9.91,-1.4,1013.6,39.906033,32.805644,-89.7,735,0.2,0.2,1.7,8.29,11.47,14:50:43.319
0,0,-1.19,-0.86,-12.11,-1.6,1013.5,39.906036,32.805628,-87.7,736,0.4,-0.1,1.75,-12.77,-2.06,14:50:43.421
0,0,4.25,-0.55,-11.5,-1.4,1013.7,39.906023,32.805635,-104.2,737,0.9,-0.1,-0.48,-7.3,0.01,14:50:43.522
0,0,3.34,-2.21,-9.44,-1.2,1012.7,39.906038,32.80563,-96.7,738,2.0,0.6,-2.48,-0.84,7.28,14:50:43.622
0,0,0.21,-1.57,-11.02,-1.5,1014.1,39.906043,32.805609,-99.6,739,1.9,0.1,3.09,-1.2,-1.44,14:50:43.723
0,0,6.45,2.08,-9.68,-1.2,1013.1,39.906042,32.805641,-85.8,740,1.3,0.0,4.26,-4.74,5.93,14:50:43.824
0,0,0.84,0.36,-9.38,-1.6,1014.0,39.906064,32.805647,-90.7,741,0.6,0.0,-6.13,-3.38,3.79,14:50:43.924
0,0,-1.55,0.16,-10.05,-1.6,1013.6,39.906013,32.805654,-94.4,742,0.3,-0.2,5.68,0.74,3.56,14:50:44.025
0,0,-2.1,1.21,-8.94,-1.4,1013.6,39.906011,32.80568,-93.3,743,0.0,0.4,-1.11,-10.59,2.21,14:50:44.126
0,0,0.25,1.87,-9.12,-2.0,1012.9,39.906046,32.805661,-95.6,744,0.2,-0.4,0.4,9.51,2.62,14:50:44.226
0,0,2.12,-1.34,-8.3,-1.3,1013.2,39.906074,32.805663,-96.3,745,0.2,0.3,-3.23,-9.56,-2.98,14:50:44.327
0,0,0.12,-0.08,-11.14,-1.4,1013.4,39.906052,32.805663,-86.9,746,0.7,-0.2,-7.96,-1.36,5.78,14:50:44.428
0,0,-4.14,2.8,-12.22,-1.6,1013.1,39.906058,32.805655,-102.6,747,0.9,1.3,-6.12,3.42,-1.59,14:50:44.528
0,0,-3.33,3.81,-9.3,-1.7,1013.6,39.906054,32.80566,-89.4,748,0.7,-0.9,-0.1,8.99,-12.34,14:50:44.629
0,0,1.11,-2.84,-10.93,-1.8,1012.7,39.906071,32.805665,-89.0,749,1.9,0.4,-1.12,4.15,-1.27,14:50:44.729
0,0,-3.3,-1.13,-11.29,-1.0,1012.6,39.90604,32.80567,-94.2,750,1.1,-0.4,-8.75,-5.41,-0.29,14:50:44.834
0,0,-0.23,-1.25,-8.16,-1.5,1013.5,39.906039,32.805655,-87.2,751,0.4,1.0,9.41,7.69,9.51,14:50:44.936
0,0,5.02,0.85,-8.86,-1.3,1013.4,39.906063,32.805655,-89.3,752,1.9,-0.0,3.09,1.14,-0.34,14:50:45.037
0,0,-0.54,1.68,-10.76,-1.5,1013.1,39.906071,32.805636,-94.0,753,0.8,0.2,-9.23,0.96,-3.45,14:50:45.137
0,0,2.55,-0.38,-9.47,-1.3,1012.8,39.906033,32.805667,-88.3,753,2.0,0.6,0.32,-4.01,-3.89,14:50:45.238
0,0,3.61,4.96,-10.98,-1.0,1013.1,39.906073,32.805658,-100.0,754,0.5,0.6,-3.56,-5.15,2.43,14:50:45.342
0,0,-2.53,0.47,-9.47,-1.2,1012.8,39.90605,32.805684,-102.8,755,1.1,-0.0,2.13,9.7,-1.52,14:50:45.444
0,0,-3.81,-4.47,-9.49,-1.6,1013.6,39.906112,32.805666,-98.0,756,1.1,-0.9,-6.27,1.63,-0.23,14:50:45.545
0,0,-0.85,-2.15,-10.36,-1.2,1013.6,39.906064,32.805663,-91.3,757,1.4,-0.0,-2.97,-1.31,3.08,14:50:45.645
0,0,3.58,1.96,-7.03,-1.3,1013.7,39.906069,32.805629,-90.3,758,0.5,0.9,3.9,-6.27,0.66,14:50:45.746
0,0,-3.44,-0.92,-12.12,-1.4,1013.2,39.906085,32.805663,-97.1,759,0.9,-1.9,-6.82,-2.78,-6.11,14:50:45.847
0,0,-3.09,-1.03,-9.95,-1.1,1013.4,39.906097,32.805682,-104.5,760,0.4,2.4,-3.12,-5.75,6.39,14:50:45.948
0,0,6.17,0.6,-10.16,-1.7,1012.8,39.906048,32.805627,-96.9,761,1.8,-0.8,3.86,3.32,2.94,14:50:46.049
0,0,0.07,1.31,-11.01,-2.1,1013.6,39.906054,32.805665,-94.0,762,0.0,-1.1,3.71,5.1,-3.18,14:50:46.149
0,0,2.24,-1.4,-10.14,-1.6,1013.1,39.906037,32.805656,-93.7,763,1.8,-0.1,7.16,-3.42,10.58,14:50:46.250
0,0,-1.46,1.32,-10.38,-1.8,1013.2,39.906059,32.805675,-104.2,764,0.5,-1.1,11.4,5.79,2.72,14:50:46.351
0.2,0,5.67,-0.84,-9.1,-1.5,1013.2,39.906016,32.805665,-85.9,765,1.2,-1.7,4.53,-0.53,-2.25,14:50:46.452
0,0,3.64,2.59,-10.74,-2.2,1012.3,39.906108,32.805683,-101.3,766,1.5,0.6,0.33,9.47,-2.81,14:50:46.552
0,0,3.28,-4.51,-10.23,-1.3,1012.8,39.906055,32.805695,-88.7,767,1.5,0.9,-2.0,-6.56,-3.34,14:50:46.653
0,0,1.77,3.67,-11.51,-1.8,1013.3,39.906051,32.805673,-88.1,768,1.1,0.4,2.55,-3.47,-2.81,14:50:46.754
0,0,3.88,-1.69,-8.69,-1.7,1014.2,39.906096,32.805674,-96.3,769,1.5,0.1,-1.98,-2.52,-6.38,14:50:46.854
0,0,0.32,0.46,-11.24,-1.5,1012.9,39.90606,32.805658,-88.1,770,1.6,-1.0,-4.17,-7.64,0.17,14:50:46.956
0,0,-0.28,-0.19,-7.2,-1.3,1012.9,39.906072,32.805682,-85.2,771,1.9,-0.5,0.53,-3.85,-1.1,14:50:47.057
0,0,5.47,1.05,-9.86,-1.7,1012.3,39.906078,32.805666,-101.2,772,0.0,-0.2,1.22,-7.27,-10.01,14:50:47.157
0,0,-0.34,1.28,-11.0,-1.5,1013.9,39.906058,32.80567,-90.6,773,1.9,-0.7,3.03,4.16,-5.2,14:50:47.258
0,0,1.08,-2.8,-7.92,-1.2,1012.6,39.906061,32.805714,-101.6,774,0.3,-2.5,0.31,-5.75,2.51,14:50:47.359
0.3,0,0.52,2.08,-8.96,-1.9,1012.9,39.906083,32.80567,-104.3,775,1.8,1.5,6.26,1.55,-3.91,14:50:47.460
0,0,3.86,1.24,-8.97,-0.9,1013.3,39.9061,32.805653,-90.1,776,0.3,-0.3,1.79,-4.01,2.05,14:50:47.560
0,0,2.95,-1.86,-10.39,-1.3,1013.4,39.906079,32.805687,-90.5,777,0.6,0.8,1.49,-1.48,-0.63,14:50:47.661
0,0,-1.93,-0.93,-8.94,-1.6,1013.7,39.906081,32.805665,-97.0,778,1.8,-0.7,-1.09,4.93,2.33,14:50:47.762
0,0,2.05,3.54,-10.55,-1.6,1013.4,39.906091,32.805686,-88.4,779,0.5,-0.4,1.2,4.44,-2.77,14:50:47.862
0,0,0.04,2.92,-7.85,-1.4,1013.7,39.906074,32.805677,-97.7,780,1.9,-0.6,-2.23,4.42,2.2,14:50:47.963
0,0,-0.29,-3.3,-10.85,-1.5,1012.7,39.906055,32.805689,-97.5,781,1.5,-1.2,2.72,5.97,9.61,14:50:48.064
0.4,0,3.23,-1.26,-10.43,-1.6,1013.3,39.906077,32.805712,-94.6,782,1.1,0.5,-6.16,0.03,-6.21,14:50:48.165
0,0,0.31,-1.07,-10.0,-1.5,1013.4,39.906055,32.805679,-86.5,783,0.8,-1.1,-7.57,0.76,3.54,14:50:48.266
0,0,-4.87,4.54,-9.82,-1.6,1013.5,39.906077,32.805719,-104.3,784,1.7,0.1,9.32,-1.96,8.94,14:50:48.367
1.1,0,2.57,-0.6,-9.1,-1.7,1014.3,39.906112,32.805712,-95.8,785,1.1,1.3,1.3,-5.76,-2.89,14:50:48.468
0.8,0,0.23,-1.98,-11.67,-1.2,1013.1,39.906065,32.805696,-91.4,786,0.6,1.6,-0.05,2.57,0.47,14:50:48.569
0.9,0,-3.5,-1.2,-9.76,-1.8,1013.2,39.906107,32.805713,-97.6,787,2.0,1.5,6.9,-0.92,-1.37,14:50:48.669
0,0,-1.26,0.61,-9.72,-1.9,1013.3,39.90608,32.805724,-91.9,788,0.5,-0.3,5.15,5.55,-3.87,14:50:48.770
0,0,-2.36,-0.54,-8.64,-1.3,1012.7,39.906083,32.805686,-98.9,789,1.8,1.1,7.44,3.46,-1.88,14:50:48.870
2.0,0,-2.97,0.33,-10.03,-1.6,1014.1,39.906092,32.805692,-90.7,790,0.1,3.6,-3.25,-1.6,-14.51,14:50:48.971
2.8,0,2.8,-2.66,-8.61,-1.4,1013.5,39.906109,32.805673,-95.6,791,0.1,0.7,4.49,-6.28,4.26,14:50:49.072
2.4,0,-2.17,-1.41,-8.51,-1.6,1012.9,39.906063,32.805726,-87.5,792,0.9,2.6,4.79,4.85,7.88,14:50:49.173
2.7,0,-2.41,0.09,-10.76,-1.4,1013.1,39.906109,32.805696,-97.1,793,0.6,3.7,0.12,-7.83,2.59,14:50:49.275
3.0,0,-0.82,1.66,-9.15,-1.2,1013.2,39.906094,32.805702,-98.4,794,0.1,1.4,-2.92,4.12,3.03,14:50:49.376
3.4,0,3.33,-0.5,-10.66,-1.9,1013.3,39.90611,32.805677,-85.8,795,1.6,5.0,0.2,-1.38,1.88,14:50:49.476
4.2,0,-1.54,3.71,-11.34,-1.8,1013.1,39.906114,32.805694,-97.9,796,1.5,3.3,3.86,-7.92,1.53,14:50:49.577
3.7,0,-2.24,0.17,-10.3,-1.6,1013.6,39.906109,32.805723,-91.1,797,0.0,5.2,6.91,7.41,-0.08,14:50:49.678
1.9,0,-2.69,-0.4,-11.0,-1.2,1013.4,39.906103,32.805669,-88.1,798,0.2,1.2,-4.64,-2.92,-0.73,14:50:49.779
2.9,0,3.42,-0.63,-8.62,-0.9,1012.8,39.906107,32.805694,-85.7,799,0.7,3.0,2.27,-0.21,-0.06,14:50:49.879
6.0,0,-0.88,-0.63,-9.48,-2.0,1013.3,39.9061,32.805722,-103.5,800,0.7,6.2,-1.23,-3.02,10.65,14:50:49.980
5.3,0,-1.79,-0.91,-8.99,-1.2,1013.9,39.906115,32.80571,-100.3,801,1.6,5.9,-4.79,6.38,-2.57,14:50:50.081
6.2,0,2.9,3.43,-9.85,-1.4,1013.1,39.90611,32.805667,-97.1,802,1.9,6.2,8.27,0.66,-3.19,14:50:50.182
3.8,0,-0.1,0.08,-8.53,-1.5,1013.1,39.906098,32.805703,-94.4,803,0.7,3.6,-4.61,-0.6,-1.34,14:50:50.283
4.4,0,2.3,0.8,-10.75,-1.3,1013.4,39.906071,32.805716,-103.4,804,1.5,4.3,3.03,1.79,-4.07,14:50:50.384
6.2,0,-1.29,-2.31,-9.36,-1.3,1013.3,39.9061,32.8057,-101.2,805,0.2,6.0,-0.48,-9.49,-0.79,14:50:50.484
10.9,0,-2.4,-0.82,-11.3,-1.3,1013.2,39.906141,32.805732,-95.0,806,0.6,9.7,3.45,5.04,3.04,14:50:50.585
5.0,0,1.39,-1.66,-10.74,-1.9,1013.5,39.906049,32.805709,-86.0,807,1.2,3.8,0.22,-0.01,-4.63,14:50:50.685
11.3,0,-2.51,2.3,-10.65,-1.3,1013.3,39.906098,32.805696,-100.3,808,1.0,10.3,8.3,-6.64,-4.56,14:50:50.786
5.5,0,0.61,2.33,-8.5,-1.5,1012.8,39.906109,32.805665,-98.9,809,0.3,6.5,-5.88,6.04,1.23,14:50:50.887
4.5,0,-0.67,0.75,-10.13,-2.0,1014.0,39.906093,32.805735,-93.5,810,0.0,5.1,-6.03,3.45,-6.81,14:50:50.988
6.8,0,0.35,0.12,-11.29,-0.9,1013.1,39.906141,32.805746,-95.4,811,0.9,7.9,3.62,-0.64,-3.22,14:50:51.088
8.4,0,-2.2,0.9,-9.1,-1.4,1013.4,39.906116,32.805713,-100.7,812,1.3,7.9,9.12,-3.43,-1.95,14:50:51.189
10.5,0,0.16,0.82,-7.67,-1.5,1013.0,39.906145,32.805748,-101.1,813,0.9,11.4,8.22,-0.76,3.92,14:50:51.290
8.5,0,-0.71,1.6,-10.74,-1.7,1012.3,39.906104,32.805729,-85.0,814,1.1,8.8,8.57,-6.52,3.49,14:50:51.391
7.6,0,2.72,-0.84,-9.62,-1.7,1013.5,39.906115,32.805694,-87.4,815,1.8,8.0,-3.45,0.13,-2.6,14:50:51.492
11.2,0,3.71,-6.57,-9.78,-1.9,1013.4,39.906113,32.805717,-88.5,816,1.1,13.3,-1.09,3.01,-8.6,14:50:51.592
10.9,0,-0.03,0.6,-10.09,-1.9,1012.8,39.906087,32.805703,-105.0,817,0.4,11.2,-6.15,2.88,-2.53,14:50:51.693
9.2,0,-3.42,-1.52,-9.64,-1.3,1013.4,39.906153,32.805731,-104.9,818,0.2,10.8,-2.37,-2.97,-1.68,14:50:51.793
7.0,0,0.21,0.11,-9.39,-0.9,1012.4,39.906098,32.805742,-90.1,819,1.4,8.3,-12.2,-5.73,-0.17,14:50:51.894
5.3,0,1.76,1.88,-9.04,-1.5,1013.6,39.906124,32.805693,-90.2,820,1.9,4.1,-0.2,1.74,2.99,14:50:51.996
9.4,0,1.18,-0.22,-9.49,-1.3,1013.3,39.906102,32.80572,-89.8,821,0.4,9.1,-4.64,0.85,5.03,14:50:52.098
12.7,0,0.54,1.6,-11.71,-1.6,1012.7,39.906129,32.805728,-100.0,822,0.0,13.0,-1.58,-5.26,11.44,14:50:52.199
11.8,0,-3.07,2.36,-9.94,-1.6,1012.4,39.9061,32.805744,-102.7,823,0.8,12.6,-4.09,1.46,1.6,14:50:52.302
9.8,0,-0.14,4.03,-9.69,-1.1,1014.2,39.906132,32.805744,-93.0,824,0.0,8.3,-0.95,-5.36,6.53,14:50:52.402
13.2,0,0.22,-1.73,-9.07,-1.0,1014.0,39.906117,32.805754,-103.5,825,0.8,13.8,-2.47,1.04,-7.86,14:50:52.503
13.2,0,7.38,2.74,-9.37,-1.6,1013.8,39.906133,32.8057,-86.7,826,1.3,13.2,-6.15,1.38,1.46,14:50:52.604
10.7,0,-1.09,-0.47,-8.5,-1.5,1014.1,39.906158,32.805738,-100.7,827,1.9,12.9,1.42,1.68,-3.67,14:50:52.705
14.8,0,0.89,0.6,-9.33,-1.1,1013.5,39.906161,32.805723,-97.3,828,1.9,14.5,2.26,3.23,-7.43,14:50:52.805
18.3,0,-0.97,-4.55,-9.57,-1.3,1013.1,39.906099,32.805707,-88.6,829,1.0,18.7,6.22,-3.57,-2.85,14:50:52.906
15.0,0,3.61,-2.22,-9.01,-2.2,1013.6,39.906124,32.805731,-102.1,830,0.1,15.7,-0.2,3.36,9.42,14:50:53.007
11.8,0,-0.63,0.82,-9.22,-1.1,1013.9,39.906122,32.805737,-93.7,831,0.6,12.7,6.08,-5.07,0.76,14:50:53.107
17.8,0,0.08,2.04,-10.66,-1.6,1013.6,39.90616,32.805686,-102.4,832,0.9,20.3,4.93,0.27,5.13,14:50:53.208
16.3,0,3.12,0.16,-12.65,-0.9,1012.8,39.906138,32.805732,-98.6,833,0.9,16.5,0.93,-0.54,7.93,14:50:53.310
15.3,0,0.98,0.83,-9.29,-1.5,1013.4,39.906117,32.805729,-94.6,834,0.8,13.3,6.5,-5.22,1.91,14:50:53.411
13.5,0,2.18,-0.32,-10.42,-1.6,1012.8,39.906163,32.805726,-101.3,835,0.1,13.5,1.45,-4.91,2.08,14:50:53.512
15.6,0,0.54,-1.23,-10.04,-1.7,1013.2,39.906177,32.805761,-93.1,836,1.4,14.8,5.3,-1.21,-2.01,14:50:53.612
15.7,0,0.68,0.86,-11.06,-0.9,1013.1,39.906139,32.805774,-88.8,837,0.9,16.2,2.33,-1.48,11.26,14:50:53.713
14.4,0,-2.79,1.2,-10.89,-2.0,1013.2,39.906131,32.805742,-94.2,838,0.4,14.5,-7.33,1.6,-5.51,14:50:53.814
19.4,0,-1.3,2.0,-9.61,-1.9,1013.8,39.906125,32.805737,-89.8,839,1.6,19.1,-0.67,0.0,11.04,14:50:53.915
17.0,0,0.64,5.27,-10.2,-1.1,1012.6,39.906125,32.80574,-96.6,840,0.4,17.7,-3.23,-8.02,-3.04,14:50:54.016
19.4,0,3.59,0.87,-8.98,-1.2,1013.0,39.906134,32.805713,-98.0,841,0.9,21.1,2.12,2.41,-0.71,14:50:54.147
21.6,0,2.03,1.64,-9.37,-1.2,1013.1,39.906108,32.805746,-99.5,842,1.6,20.1,4.91,8.33,1.47,14:50:54.249
16.8,0,-0.28,-3.16,-10.78,-1.5,1012.9,39.906138,32.805731,-85.9,843,1.6,15.5,-6.26,-1.57,-2.51,14:50:54.350
19.9,0,2.23,-0.26,-8.65,-1.6,1013.5,39.906189,32.805763,-91.6,844,0.8,20.0,0.4,11.79,-10.55,14:50:54.450
18.8,0,-1.22,-4.06,-6.92,-2.0,1013.1,39.906168,32.805728,-93.5,845,1.0,18.2,-5.22,3.33,3.89,14:50:54.551
20.4,0,5.73,-0.2,-8.1,-1.3,1012.9,39.906165,32.805734,-91.5,846,2.0,21.2,5.13,6.57,4.16,14:50:54.652
17.5,0,-3.14,4.89,-11.68,-1.3,1013.0,39.906163,32.805769,-97.1,847,0.5,16.9,0.68,14.94,7.88,14:50:54.753
21.7,0,-0.42,-1.77,-11.33,-1.9,1013.5,39.906149,32.805748,-89.4,848,0.2,21.5,3.67,0.34,-7.97,14:50:54.853
19.7,0,1.08,2.9,-11.0,-1.9,1013.5,39.906167,32.805768,-99.8,849,0.1,20.2,2.08,1.5,6.2,14:50:54.954
20.9,0,-0.41,2.0,-9.12,-1.5,1013.2,39.906126,32.805733,-87.1,850,1.2,21.3,-6.48,1.05,1.18,14:50:55.152
24.0,0,0.68,-3.36,-10.38,-1.9,1013.0,39.90614,32.805751,-85.8,851,1.2,24.2,-5.59,0.22,9.16,14:50:55.487
26.0,0,-0.71,-3.81,-9.32,-1.4,1013.0,39.906167,32.805803,-94.4,852,1.4,26.0,-6.16,-6.1,-0.14,14:50:55.622
23.2,0,0.97,-1.92,-9.18,-1.5,1012.4,39.906174,32.805748,-88.3,853,0.6,24.7,-2.62,1.38,2.4,14:50:55.730
23.7,0,0.06,2.43,-9.47,-1.5,1013.8,39.906168,32.805752,-98.9,854,1.6,24.5,4.21,5.88,-9.73,14:50:55.832
21.6,0,2.29,-3.72,-8.4,-1.8,1012.3,39.906125,32.80579,-103.3,855,1.8,23.0,-10.73,5.01,-3.55,14:50:55.937
27.2,0,1.96,0.76,-11.42,-1.4,1013.2,39.906169,32.805789,-102.5,856,0.3,26.8,-5.47,5.61,-2.33,14:50:56.068
21.7,0,-2.95,-3.0,-10.46,-1.5,1013.4,39.9062,32.805759,-89.7,857,1.2,22.2,2.14,-2.09,-12.7,14:50:56.183
24.5,0,-1.99,2.35,-11.01,-1.8,1013.0,39.906148,32.805733,-102.7,858,0.0,24.1,4.85,-7.91,1.64,14:50:56.353
24.4,0,-1.13,-0.68,-7.72,-1.5,1013.3,39.906171,32.805752,-101.8,859,1.7,25.1,4.18,3.17,7.48,14:50:56.464
28.5,0,5.45,0.46,-8.88,-1.4,1012.4,39.906188,32.805753,-100.3,860,0.5,31.1,3.63,2.34,2.43,14:50:56.584
26.1,0,0.04,-2.89,-8.92,-1.6,1013.0,39.90611,32.805775,-101.1,861,0.2,27.4,-2.11,3.54,0.74,14:50:56.716
27.1,0,-0.17,-1.04,-9.33,-1.1,1013.3,39.906128,32.805763,-91.9,862,0.9,26.8,-4.27,-4.36,-3.81,14:50:56.831
23.7,0,-6.43,2.43,-9.07,-1.7,1013.7,39.906153,32.805769,-85.4,863,1.6,23.3,1.95,-5.02,-5.04,14:50:56.936
24.0,0,-4.8,0.02,-6.82,-0.7,1013.3,39.906161,32.805775,-92.8,864,0.1,23.4,5.71,3.97,-2.78,14:50:57.038
26.3,0,-1.0,3.77,-9.28,-0.7,1013.2,39.906209,32.805772,-95.8,865,0.1,26.4,-1.54,3.08,3.2,14:50:57.139
24.4,0,-1.26,2.1,-8.93,-1.8,1013.2,39.906199,32.805799,-103.4,866,1.5,24.1,-5.52,3.46,-2.58,14:50:57.239
28.1,0,2.27,1.44,-11.31,-2.1,1012.6,39.906148,32.805746,-87.5,867,1.7,28.7,15.86,1.07,-8.68,14:50:57.340
27.7,0,-2.55,-1.92,-10.52,-2.2,1013.5,39.906153,32.805769,-104.2,868,0.0,25.8,5.7,-9.18,-1.34,14:50:57.441
32.1,0,1.45,3.2,-10.08,-1.0,1013.8,39.906138,32.805753,-100.7,869,0.4,31.9,-2.12,-0.08,5.78,14:50:57.542
30.5,0,-1.31,-0.21,-9.82,-1.5,1013.2,39.906215,32.805744,-89.5,870,0.8,31.7,3.52,-2.03,3.41,14:50:57.643
30.8,0,-3.02,-0.47,-10.44,-1.7,1014.9,39.9062,32.805759,-86.1,871,1.6,30.1,6.66,1.92,-3.89,14:50:57.744
28.9,0,-0.62,-0.44,-10.54,-1.6,1013.6,39.906193,32.80579,-93.2,872,2.0,27.7,4.39,-4.77,2.24,14:50:57.844
32.5,0,-0.76,-3.33,-8.44,-1.7,1012.5,39.906159,32.805798,-94.1,873,0.2,33.0,0.08,4.72,-11.28,14:50:57.945
31.3,0,0.62,-3.45,-9.78,-1.3,1014.6,39.906218,32.80577,-96.2,874,1.4,31.4,5.46,13.15,-6.14,14:50:58.046
29.3,0,-1.61,-1.34,-9.21,-1.9,1012.8,39.906171,32.805779,-92.6,875,0.3,29.9,3.88,3.61,-6.56,14:50:58.148
31.1,0,1.83,0.15,-9.36,-1.3,1012.9,39.906153,32.805804,-89.7,876,1.4,33.2,1.62,-5.92,2.41,14:50:58.248
31.6,0,0.57,-0.21,-8.18,-1.9,1014.0,39.906228,32.805761,-90.2,877,0.9,31.1,-1.77,0.07,-1.33,14:50:58.349
30.5,0,1.25,1.9,-8.72,-1.5,1013.8,39.906205,32.805805,-93.7,878,0.7,29.2,4.01,-4.02,5.17,14:50:58.450
31.8,0,0.18,-3.64,-8.88,-1.0,1013.8,39.906174,32.805758,-104.6,879,0.8,31.0,1.38,-0.33,6.85,14:50:58.551
33.7,0,1.72,-0.99,-12.25,-0.9,1013.6,39.906196,32.805761,-85.5,880,0.8,32.7,9.44,-3.78,-1.36,14:50:58.652
33.0,0,1.07,0.86,-9.27,-1.7,1012.1,39.906186,32.805792,-104.8,881,0.2,32.3,0.26,1.09,-5.24,14:50:58.753
34.5,0,-1.18,-2.83,-9.98,-2.1,1012.8,39.906189,32.805799,-90.4,882,1.1,32.2,8.63,1.54,-3.22,14:50:58.854
33.5,0,2.07,-0.52,-8.34,-1.2,1012.7,39.906152,32.805824,-92.1,883,0.7,33.0,3.65,2.34,3.43,14:50:58.955
36.6,0,-2.36,3.4,-10.06,-1.0,1013.4,39.906166,32.805769,-99.9,884,1.7,37.1,4.27,-5.91,1.51,14:50:59.056
37.4,0,-0.81,0.93,-11.27,-1.5,1013.6,39.906159,32.805758,-97.4,885,1.8,38.3,3.26,3.85,-3.35,14:50:59.156
34.7,0,1.6,-1.79,-10.13,-1.3,1013.8,39.906163,32.805787,-102.8,886,1.0,36.9,-4.28,-7.51,-4.98,14:50:59.257
39.6,0,-1.84,2.0,-9.5,-1.3,1012.4,39.906239,32.805767,-92.0,887,0.1,39.6,3.11,-5.6,10.55,14:50:59.359
37.5,0,1.92,-0.38,-9.48,-1.3,1012.3,39.906208,32.805781,-97.2,888,0.5,38.0,-7.39,0.88,5.61,14:50:59.459
37.5,0,1.05,1.68,-9.19,-1.1,1013.9,39.906154,32.805784,-103.8,889,0.3,36.4,-3.01,-7.66,-0.97,14:50:59.560
35.3,0,-1.05,-0.86,-6.09,-1.6,1012.9,39.906205,32.805798,-89.0,890,0.2,33.9,9.92,-7.83,-0.46,14:50:59.661
35.3,0,-0.15,1.99,-9.97,-1.5,1014.0,39.90617,32.805795,-101.5,891,0.1,33.5,0.51,5.74,0.58,14:50:59.763
40.0,0,-2.23,1.19,-11.1,-1.3,1013.8,39.9062,32.80582,-95.3,892,0.6,38.6,8.2,3.02,4.51,14:50:59.863
34.3,0,-3.53,-4.84,-11.07,-1.1,1012.7,39.906192,32.805805,-89.2,893,0.7,35.5,1.36,3.23,4.85,14:50:59.964
36.3,0,0.26,-1.58,-11.0,-1.7,1012.5,39.906196,32.805752,-94.4,894,0.0,35.8,-2.27,-7.19,6.97,14:51:00.065
36.6,0,1.25,0.14,-9.37,-1.4,1012.6,39.90619,32.805822,-97.0,895,1.0,36.3,0.38,1.71,1.94,14:51:00.166
37.6,0,0.94,2.94,-10.39,-1.3,1012.5,39.906175,32.805834,-100.3,896,0.3,35.8,-7.56,3.79,-0.21,14:51:00.267
36.3,0,1.21,0.13,-10.52,-1.2,1013.0,39.906186,32.805796,-100.8,897,1.7,35.6,-6.2,-5.47,2.65,14:51:00.367
41.4,0,2.87,-0.43,-10.27,-1.3,1013.0,39.906177,32.805812,-103.1,898,1.4,43.0,-1.54,3.85,-2.33,14:51:00.471
36.5,0,-3.59,-0.29,-11.07,-1.7,1012.8,39.906221,32.805808,-86.4,899,0.1,35.7,-0.02,-6.02,-6.85,14:51:00.572
38.2,0,-0.8,2.89,-9.23,-2.1,1012.9,39.906226,32.805758,-101.0,900,0.6,38.2,6.13,4.66,0.03,14:51:00.673
41.4,0,-0.66,1.16,-12.11,-1.5,1013.5,39.906205,32.805789,-86.5,901,1.9,39.4,-0.47,4.64,6.93,14:51:00.774
43.8,0,3.76,-0.21,-9.43,-1.8,1013.2,39.906147,32.805807,-98.5,902,1.8,44.5,-7.51,-2.19,-2.67,14:51:00.875
40.6,0,1.18,-0.63,-9.63,-1.5,1013.2,39.906213,32.805793,-98.3,903,0.7,43.3,1.39,1.66,3.96,14:51:00.975
40.1,0,-2.6,-2.57,-11.72,-1.7,1013.2,39.906196,32.805806,-103.3,904,1.0,40.8,1.31,-8.68,-4.3,14:51:01.077
42.5,0,3.04,-0.21,-10.92,-1.7,1012.7,39.906192,32.805816,-100.2,905,0.3,41.7,0.12,0.01,-2.02,14:51:01.179
44.6,0,0.65,1.16,-9.05,-1.3,1013.3,39.906227,32.805794,-86.9,906,1.0,45.3,0.8,2.05,7.84,14:51:01.279
43.5,0,-2.19,3.59,-10.41,-1.4,1013.9,39.906222,32.805785,-100.2,907,1.8,43.9,-6.2,-6.3,-7.19,14:51:01.380
44.5,0,2.2,0.85,-9.52,-1.3,1013.2,39.906209,32.805815,-97.5,908,0.7,45.5,4.37,1.9,-3.34,14:51:01.481
43.9,0,-2.15,2.79,-8.93,-1.2,1012.9,39.906177,32.805831,-90.6,909,1.9,44.1,3.4,-5.24,-4.06,14:51:01.581
46.9,0,-1.7,-5.55,-10.93,-1.9,1012.4,39.90621,32.80583,-99.5,910,0.9,47.8,-2.05,-1.83,5.23,14:51:01.697
44.1,0,2.74,0.62,-9.85,-1.8,1012.6,39.90626,32.805831,-87.8,911,0.4,44.7,-11.84,4.62,7.0,14:51:01.808
46.0,0,-2.44,-0.39,-10.22,-1.4,1013.1,39.906225,32.805818,-87.6,912,1.7,45.8,3.63,-8.3,-1.69,14:51:01.909
41.4,0,-5.32,0.29,-9.66,-1.9,1013.1,39.906195,32.805819,-90.7,913,1.2,39.8,2.97,3.1,-0.21,14:51:02.030
49.2,0,-4.06,-1.31,-10.42,-1.8,1013.8,39.906229,32.805832,-96.5,914,0.2,48.5,-4.2,5.88,1.96,14:51:02.143
43.4,0,0.45,-0.25,-10.61,-1.3,1013.4,39.906205,32.8058,-101.8,915,1.5,42.1,5.1,-3.78,3.95,14:51:02.243
47.9,0,1.46,-5.57,-11.35,-1.6,1013.0,39.90622,32.805843,-99.1,916,1.2,48.1,1.48,-1.92,5.49,14:51:02.344
48.2,0,1.96,2.28,-8.79,-1.7,1012.5,39.906264,32.805825,-87.8,917,0.7,47.6,6.16,-5.84,0.88,14:51:02.445
48.0,0,2.26,-1.68,-12.14,-1.8,1012.9,39.906226,32.805834,-90.9,918,1.7,49.3,-1.57,2.83,18.1,14:51:02.578
49.1,0,-0.78,0.24,-8.93,-2.1,1012.7,39.906207,32.805806,-101.4,919,0.1,50.2,1.68,0.45,-4.97,14:51:03.081
49.2,0,4.97,-2.6,-10.29,-1.3,1013.6,39.906235,32.805796,-87.2,920,1.0,50.2,7.21,-3.88,-6.68,14:51:03.463
49.3,0,-4.15,1.87,-9.97,-1.7,1014.1,39.906225,32.805761,-99.2,921,0.4,48.4,1.99,6.5,1.51,14:51:03.619
44.6,0,-1.59,-2.53,-11.84,-2.0,1013.3,39.906227,32.805831,-95.7,922,1.1,44.8,10.29,-7.24,-2.08,14:51:03.743
50.3,0,3.85,-1.34,-8.56,-1.4,1013.6,39.906239,32.805828,-102.3,923,0.7,49.6,-4.16,-5.41,-2.81,14:51:03.853
47.6,0,0.28,1.43,-9.32,-1.8,1013.3,39.906259,32.805802,-100.6,924,1.8,48.0,1.7,2.16,-0.15,14:51:03.976
54.8,0,1.1,0.01,-8.42,-1.0,1013.0,39.906234,32.805791,-91.8,925,1.7,55.3,0.72,-4.91,3.22,14:51:04.245
51.3,0,-2.0,2.62,-10.26,-2.1,1013.1,39.906253,32.80585,-85.5,926,1.9,51.3,8.36,14.25,-1.91,14:51:04.351
49.6,0,-5.55,-0.77,-9.22,-1.4,1012.5,39.906215,32.805858,-93.3,927,0.6,50.2,2.09,11.62,-0.11,14:51:04.455
50.1,0,1.09,-0.14,-10.28,-1.5,1012.7,39.906198,32.805838,-97.1,928,1.7,49.3,8.98,-3.95,3.94,14:51:04.557
51.3,0,-3.63,-0.39,-7.85,-1.7,1013.8,39.906238,32.805819,-87.9,929,0.7,52.9,5.73,-3.15,7.56,14:51:04.658
50.9,0,-1.32,3.47,-9.78,-1.2,1013.3,39.906221,32.805808,-99.4,930,0.9,50.9,1.02,-3.75,-5.1,14:51:04.762
47.4,0,1.35,-1.51,-9.17,-1.3,1012.9,39.906237,32.805833,-87.7,931,0.0,46.2,-0.4,0.33,-2.2,14:51:04.865
53.5,0,-1.66,1.55,-10.24,-1.2,1013.9,39.906214,32.805877,-101.0,932,0.8,54.4,-0.76,3.87,3.13,14:51:04.966
52.4,0,-0.32,-0.39,-10.04,-1.5,1012.6,39.906266,32.805851,-104.9,933,1.2,54.1,7.86,-1.04,-1.56,14:51:05.067
54.5,0,-0.8,-1.59,-9.43,-1.5,1014.0,39.906213,32.805863,-92.8,934,1.3,53.3,2.79,7.72,-3.71,14:51:05.168
54.1,0,-1.85,-3.43,-8.91,-1.5,1013.9,39.906209,32.805849,-95.7,935,1.6,53.1,-1.46,3.24,-2.12,14:51:05.269
53.3,0,-6.08,0.0,-12.51,-1.6,1013.2,39.906228,32.805852,-93.9,936,0.1,52.9,-2.54,0.85,8.39,14:51:05.370
55.2,0,0.94,-3.11,-10.43,-1.9,1013.6,39.906216,32.805807,-86.6,937,0.9,54.9,-1.36,-3.74,-6.9,14:51:05.471
51.4,0,3.13,-1.27,-7.96,-1.4,1013.2,39.906246,32.80586,-89.8,938,0.8,50.4,-3.95,-4.91,4.23,14:51:05.572
54.4,0,1.03,1.18,-9.4,-1.5,1013.7,39.906238,32.805851,-96.9,939,0.4,53.7,-13.22,-0.54,1.67,14:51:05.673
57.2,0,4.93,-1.33,-8.28,-1.0,1014.0,39.906243,32.805844,-101.2,940,0.3,57.1,0.17,-5.53,-4.49,14:51:05.773
51.5,0,1.22,1.22,-9.38,-1.7,1013.4,39.906243,32.805866,-92.6,941,1.0,53.0,12.4,-2.07,-0.79,14:51:05.874
53.6,0,-2.05,4.65,-9.98,-1.5,1013.0,39.906225,32.805837,-102.3,942,0.9,52.5,-0.93,-1.31,-2.7,14:51:05.975
56.7,0,2.02,-5.84,-9.65,-1.4,1013.4,39.906249,32.805829,-85.8,943,0.6,54.3,-2.46,8.73,-0.8,14:51:06.076
54.4,0,-2.15,0.19,-10.25,-1.5,1013.1,39.906226,32.80586,-94.6,944,2.0,51.7,-4.69,3.05,9.22,14:51:06.177
57.8,0,0.97,2.78,-10.05,-1.0,1013.7,39.906238,32.805832,-91.3,945,0.1,57.2,1.64,-5.24,-2.2,14:51:06.277
54.8,0,-3.62,-1.51,-9.02,-1.7,1013.7,39.906239,32.80585,-89.6,946,1.2,53.7,4.63,0.4,-6.97,14:51:06.378
59.9,0,-3.56,0.49,-9.59,-1.4,1013.2,39.90624,32.80581,-100.6,947,1.0,60.0,-0.74,-6.04,0.91,14:51:06.479
60.2,0,3.5,1.1,-8.95,-1.2,1013.3,39.906243,32.80583,-98.2,948,0.5,60.3,3.49,-0.47,3.45,14:51:06.579
54.2,0,2.38,-0.07,-10.81,-1.6,1011.9,39.906271,32.805821,-86.3,949,1.7,54.1,1.38,3.57,-2.48,14:51:06.680
55.7,0,0.95,0.73,-11.7,-1.9,1013.4,39.906266,32.805849,-88.1,950,1.1,55.7,-5.16,6.18,10.12,14:51:06.781
58.0,0,3.33,-0.75,-12.55,-1.1,1013.2,39.906212,32.80587,-98.6,951,0.8,56.5,-1.01,1.38,-3.39,14:51:06.890
57.1,0,2.84,1.87,-9.22,-1.3,1012.8,39.90628,32.805848,-91.4,952,0.7,55.8,-7.41,4.82,4.53,14:51:06.991
58.3,0,0.51,-0.66,-9.93,-1.3,1013.1,39.90625,32.805861,-99.1,953,1.2,59.5,-13.72,-7.18,6.39,14:51:07.092
58.7,0,1.08,-1.26,-10.51,-1.0,1013.5,39.906261,32.805852,-102.8,954,0.3,58.4,-7.29,4.65,6.83,14:51:07.195
55.4,0,2.58,0.36,-9.19,-1.7,1013.7,39.906225,32.80586,-96.4,955,1.1,55.7,-2.3,-0.03,-19.81,14:51:07.296
62.0,0,0.78,-1.77,-9.7,-1.6,1014.0,39.906274,32.805839,-98.3,956,0.2,60.9,1.59,-4.11,-11.26,14:51:07.397
63.5,0,4.24,-2.47,-10.95,-1.2,1013.9,39.906252,32.805859,-91.4,957,0.1,63.7,-6.79,2.4,-3.3,14:51:07.498
58.9,0,1.44,-0.09,-10.35,-1.5,1012.5,39.906282,32.805848,-95.1,958,0.8,57.8,2.49,-1.78,-0.87,14:51:07.599
62.4,0,3.39,-1.81,-10.15,-1.5,1013.1,39.906223,32.805819,-97.6,959,0.6,62.3,-0.58,-2.76,5.67,14:51:07.700
63.6,0,-1.91,-1.88,-9.3,-1.3,1013.3,39.906237,32.805887,-92.4,960,1.3,63.8,10.05,4.21,-5.05,14:51:07.801
62.7,0,-1.43,-0.95,-10.56,-1.5,1012.6,39.906221,32.805886,-98.7,961,0.9,61.0,0.13,0.82,1.42,14:51:07.902
62.5,0,4.5,-1.34,-10.29,-1.4,1013.4,39.906247,32.805887,-96.6,962,2.0,62.5,3.99,6.99,-1.38,14:51:08.003
59.9,0,0.42,-1.08,-9.88,-1.9,1012.2,39.906263,32.80584,-101.3,963,2.0,61.4,1.55,-1.04,2.22,14:51:08.104
60.4,0,-2.81,0.07,-10.24,-1.4,1013.9,39.90627,32.805865,-89.8,964,1.5,59.3,-4.33,1.54,4.66,14:51:08.204
63.9,0,1.41,-1.29,-8.33,-1.1,1012.9,39.906263,32.805886,-88.0,965,0.2,64.5,0.51,1.6,0.39,14:51:08.305
61.9,0,-1.56,2.66,-9.75,-1.4,1013.9,39.906264,32.805858,-102.4,966,0.0,62.7,-1.05,3.04,-8.97,14:51:08.409
60.8,0,1.73,-4.33,-7.85,-1.7,1013.2,39.906253,32.805866,-99.8,967,1.8,60.1,-4.47,-0.88,-0.3,14:51:08.511
66.2,0,-0.34,3.86,-9.73,-1.6,1013.3,39.906257,32.805894,-86.6,968,0.2,66.2,-0.11,-3.87,3.35,14:51:08.617
64.8,0,1.94,-0.81,-6.8,-1.2,1012.4,39.906251,32.805852,-97.0,969,1.2,64.8,-5.18,-10.28,2.57,14:51:08.734
65.8,0,-2.23,1.17,-9.07,-1.2,1012.0,39.90627,32.805872,-101.7,970,0.9,66.9,2.32,6.52,3.51,14:51:08.834
62.9,0,3.31,0.61,-11.4,-1.8,1013.0,39.906292,32.805897,-89.6,971,0.5,63.3,3.22,5.93,4.2,14:51:08.962
67.2,0,3.65,-1.78,-12.45,-1.8,1013.0,39.906237,32.805847,-89.3,972,0.9,66.0,2.84,9.44,-3.92,14:51:09.658
64.3,0,0.49,0.65,-8.93,-1.7,1013.0,39.90626,32.805832,-92.2,973,1.9,65.3,-2.7,1.2,0.36,14:51:09.960
65.1,0,-0.91,1.3,-9.54,-1.1,1013.2,39.906287,32.805901,-100.1,974,1.9,63.7,1.48,-2.68,0.87,14:51:10.085
65.4,0,6.0,1.1,-9.99,-1.1,1012.3,39.906285,32.805927,-90.3,975,0.4,65.5,-4.59,-1.48,6.05,14:51:10.215
66.9,0,-0.9,-4.25,-9.82,-1.5,1013.3,39.906253,32.805877,-102.5,976,1.7,63.7,1.75,7.16,-0.22,14:51:10.331
66.8,0,1.72,-0.86,-8.63,-1.4,1013.8,39.906287,32.805872,-88.7,977,0.5,67.7,-1.76,4.13,4.23,14:51:10.431
67.3,0,-3.05,3.67,-10.51,-1.6,1013.3,39.906267,32.805882,-99.8,978,0.4,66.2,-4.65,9.9,-0.92,14:51:10.532
68.0,0,-0.04,2.61,-10.5,-1.4,1013.1,39.906258,32.805857,-90.1,979,1.8,69.5,0.85,0.61,-7.9,14:51:10.633
65.8,0,-1.71,3.15,-9.22,-1.6,1013.3,39.906247,32.805861,-86.4,980,1.6,64.6,-8.26,4.41,-3.86,14:51:10.733
68.8,0,-1.2,4.23,-9.3,-2.3,1013.4,39.906276,32.805887,-100.4,981,1.9,71.3,-0.35,6.53,6.18,14:51:10.834
70.6,0,-2.11,1.72,-10.1,-1.6,1013.2,39.906287,32.805878,-89.4,982,1.7,71.3,-6.41,-2.85,-1.77,14:51:10.935
70.7,0,-1.22,-4.94,-10.79,-2.0,1013.5,39.906329,32.805862,-93.0,983,0.8,69.1,7.83,-1.51,3.01,14:51:11.035
71.7,0,2.62,0.16,-8.94,-1.6,1012.6,39.906303,32.805896,-91.1,984,1.1,69.8,2.17,0.67,0.49,14:51:11.135
69.7,0,0.57,5.9,-11.61,-1.5,1012.6,39.906274,32.805871,-104.8,985,0.1,69.5,-2.67,3.33,6.47,14:51:11.236
69.7,0,-2.66,1.89,-9.92,-1.7,1013.2,39.90628,32.805874,-86.5,986,1.1,70.0,-0.93,6.6,-4.83,14:51:11.345
65.9,0,-1.6,-0.97,-11.4,-1.9,1013.0,39.906288,32.805905,-102.5,987,1.7,65.4,-2.68,-2.12,11.58,14:51:11.465
66.6,0,-3.26,0.17,-9.49,-1.5,1014.1,39.906269,32.805869,-85.1,988,1.4,64.3,7.98,-8.86,4.88,14:51:11.566
71.3,0,-0.27,-0.67,-9.4,-0.9,1013.5,39.906313,32.805894,-101.0,989,1.5,69.7,-1.0,3.18,-0.48,14:51:11.667
70.4,0,1.75,-2.96,-7.89,-1.7,1012.8,39.906281,32.805892,-89.2,990,1.7,71.5,-6.6,8.21,-3.81,14:51:11.767
67.4,0,-5.35,-2.63,-7.93,-1.0,1014.4,39.906297,32.805904,-101.1,991,1.1,67.0,3.6,-6.63,2.67,14:51:11.868
70.3,0,-1.59,3.4,-8.92,-1.5,1013.6,39.906271,32.805868,-96.1,992,1.8,71.4,7.31,2.37,11.39,14:51:11.972
69.6,0,3.4,1.75,-10.57,-1.2,1013.3,39.906257,32.805905,-85.0,993,0.8,68.7,-7.0,2.15,6.19,14:51:12.081
70.6,0,1.36,1.08,-9.99,-1.4,1013.8,39.906282,32.805912,-101.8,994,1.6,69.9,-7.3,-3.14,-2.99,14:51:12.227
69.2,0,-1.0,0.63,-9.06,-1.9,1013.3,39.906292,32.805874,-97.2,995,1.5,69.6,-0.5,3.7,-5.4,14:51:12.329
71.9,0,-3.66,4.7,-8.16,-2.0,1013.2,39.906282,32.805882,-97.5,996,0.8,70.8,-1.04,-2.41,10.22,14:51:12.430
68.2,0,1.71,-3.66,-11.79,-1.0,1013.7,39.906313,32.805865,-88.8,997,1.1,66.8,-8.3,-0.45,-2.97,14:51:12.531
75.3,0,1.99,4.01,-8.47,-1.5,1012.4,39.906301,32.805921,-94.3,998,1.3,75.2,4.57,8.37,-3.12,14:51:12.632
65.2,0,-1.17,1.15,-10.77,-1.3,1012.7,39.906304,32.805915,-102.9,999,1.0,63.7,-0.85,-7.78,12.02,14:51:12.733
71.3,0,-1.11,1.92,-9.28,-1.5,1013.5,39.906296,32.805938,-98.4,1000,1.0,70.2,3.48,-5.77,-3.91,14:51:12.834
71.7,0,-0.08,-3.72,-10.52,-1.7,1013.8,39.906328,32.805863,-88.5,1001,0.8,71.3,-2.97,4.58,0.86,14:51:12.935
70.2,0,0.43,0.73,-7.33,-1.1,1013.6,39.906334,32.805887,-102.8,1002,0.5,69.7,-2.21,2.41,-5.78,14:51:13.035
72.2,0,-3.56,-0.75,-10.63,-1.8,1013.6,39.906299,32.805965,-95.1,1003,1.3,72.6,3.89,6.13,-4.12,14:51:13.136
72.5,0,0.75,-1.18,-8.67,-0.9,1013.7,39.906313,32.805864,-98.5,1004,0.5,73.3,-6.22,6.77,-2.84,14:51:13.237
71.2,0,-3.74,1.66,-10.12,-1.8,1013.6,39.906301,32.805946,-104.3,1005,1.9,70.7,11.08,0.87,1.58,14:51:13.337
69.3,0,1.57,2.16,-9.05,-2.2,1013.9,39.906358,32.805934,-97.2,1006,0.7,70.3,6.28,0.43,2.45,14:51:13.438
72.9,0,-1.63,1.94,-9.57,-1.4,1012.8,39.90629,32.805915,-89.7,1007,0.2,71.7,8.17,0.47,-1.12,14:51:13.539
73.6,0,-2.3,2.27,-9.76,-1.5,1013.1,39.906318,32.805866,-104.1,1008,1.5,72.1,5.86,2.58,7.85,14:51:13.640
71.4,0,1.82,-0.77,-9.67,-1.5,1013.0,39.906312,32.805925,-85.4,1009,0.2,70.8,2.21,-2.28,0.89,14:51:13.745
74.0,0,5.69,1.34,-10.62,-1.5,1013.9,39.9063,32.80587,-89.8,1010,0.6,75.6,-0.21,4.13,-1.07,14:51:13.846
74.5,0,-4.08,3.32,-9.85,-1.6,1014.3,39.906306,32.805884,-86.7,1011,0.8,75.2,-15.02,-13.96,4.86,14:51:13.946
76.9,0,3.97,-1.51,-8.74,-1.3,1013.6,39.906308,32.805928,-87.6,1012,1.3,75.7,8.02,5.36,4.37,14:51:14.047
75.1,0,1.0,-1.51,-9.68,-1.2,1013.3,39.906298,32.805952,-102.3,1013,1.6,76.7,-2.8,-4.54,-10.0,14:51:14.148
75.4,0,1.24,0.41,-12.46,-1.8,1013.2,39.906315,32.805887,-101.6,1014,1.5,75.5,-2.06,2.21,-7.83,14:51:14.249
75.5,0,0.96,0.27,-8.61,-1.2,1014.3,39.906323,32.805909,-100.5,1015,1.9,74.9,-0.21,-2.89,-5.55,14:51:14.349
72.3,0,1.27,-1.55,-7.43,-1.3,1012.7,39.906297,32.805895,-101.9,1016,1.6,72.5,-0.5,3.72,6.13,14:51:14.450
74.7,0,1.55,1.21,-9.04,-1.3,1012.7,39.906306,32.805905,-104.2,1017,1.4,74.3,7.23,4.3,-2.71,14:51:14.551
72.7,0,0.67,-2.92,-11.14,-1.7,1013.7,39.906291,32.805919,-96.4,1018,0.6,71.9,6.4,9.24,-6.74,14:51:14.652
73.4,0,2.2,-2.13,-8.02,-1.9,1012.3,39.906327,32.805903,-103.4,1019,2.0,74.1,5.76,7.62,-0.63,14:51:14.752
75.4,0,-1.02,1.7,-10.72,-1.4,1012.2,39.906342,32.805906,-94.8,1020,1.1,73.2,1.01,3.71,5.86,14:51:14.853
75.8,0,2.58,2.49,-9.9,-1.6,1013.1,39.906285,32.805917,-102.7,1021,1.3,76.8,-2.93,14.65,-6.09,14:51:14.954
75.9,0,-0.91,-3.31,-8.79,-1.4,1013.2,39.906342,32.805922,-88.4,1022,2.0,77.6,13.49,3.38,-1.13,14:51:15.055
75.1,0,1.03,1.64,-9.12,-2.1,1012.5,39.906334,32.805921,-91.6,1023,0.0,73.9,1.92,-2.17,-4.17,14:51:15.155
74.8,0,1.45,3.67,-9.02,-2.2,1013.3,39.906345,32.805929,-93.4,1024,1.9,74.5,-1.67,-3.38,2.69,14:51:15.256
77.2,0,1.27,-0.65,-8.9,-1.4,1014.5,39.906326,32.805909,-92.4,1025,1.9,78.1,4.05,-3.55,9.64,14:51:15.357
74.7,0,6.11,0.77,-8.38,-1.1,1012.8,39.906317,32.80589,-100.2,1026,0.2,72.7,0.93,9.16,-1.14,14:51:15.458
75.3,0,2.9,4.01,-8.56,-1.2,1012.7,39.906332,32.805932,-86.8,1027,0.1,76.1,0.19,-0.69,-4.85,14:51:15.559
79.6,0,2.47,-3.48,-8.73,-1.3,1013.2,39.906322,32.805938,-87.9,1028,1.7,78.6,12.36,-1.74,5.35,14:51:15.659
79.8,0,-4.38,-1.28,-6.8,-1.3,1013.2,39.906334,32.805947,-94.9,1029,1.2,81.4,-0.91,2.65,5.66,14:51:15.760
77.9,0,1.79,-0.17,-9.72,-1.8,1013.9,39.906357,32.805932,-97.0,1030,0.1,78.8,-9.3,2.36,-0.47,14:51:15.861
75.1,0,-1.96,-0.68,-9.38,-1.6,1013.4,39.906346,32.805923,-86.1,1031,0.1,74.9,-1.92,-3.53,-12.43,14:51:15.962
74.6,0,2.84,1.49,-11.94,-1.6,1014.2,39.906339,32.805944,-94.3,1032,1.6,74.5,3.13,-6.78,-4.95,14:51:16.062
77.1,0,-2.48,0.36,-9.0,-1.6,1013.2,39.906369,32.805915,-102.3,1033,0.8,76.8,-0.99,-1.04,7.1,14:51:16.163
73.4,0,2.65,1.71,-10.52,-1.6,1013.2,39.906289,32.805896,-95.1,1034,0.4,74.0,-2.96,2.97,-3.0,14:51:16.264
75.4,0,0.25,-0.1,-11.84,-1.4,1012.7,39.906326,32.805938,-101.1,1035,0.2,74.9,1.98,-1.76,1.54,14:51:16.365
77.6,0,4.22,-2.9,-9.41,-1.3,1012.7,39.906337,32.805908,-93.8,1036,1.6,78.0,-9.11,9.47,-1.97,14:51:16.466
76.7,0,-3.95,-2.59,-11.01,-1.5,1013.6,39.906342,32.805936,-99.6,1037,0.9,76.6,4.9,-4.28,-0.6,14:51:16.566
78.4,0,0.84,1.14,-11.24,-1.2,1013.2,39.906343,32.805939,-100.5,1038,1.1,78.7,-3.33,3.44,-4.93,14:51:16.667
75.1,0,3.08,1.71,-10.59,-1.5,1013.3,39.906336,32.805911,-98.5,1039,0.9,73.2,7.6,-15.58,7.46,14:51:16.768
72.4,0,2.48,2.13,-11.42,-0.7,1013.3,39.906308,32.805919,-87.9,1040,0.4,71.7,1.36,0.11,4.63,14:51:16.869
76.5,0,0.18,2.57,-9.87,-1.8,1013.6,39.906332,32.805921,-92.5,1041,0.5,75.0,0.31,8.47,-4.58,14:51:16.970
77.7,0,-0.1,0.43,-9.49,-2.2,1013.4,39.906343,32.805932,-99.5,1042,0.1,76.6,-2.19,-4.59,4.92,14:51:17.071
75.8,0,-1.62,1.22,-10.67,-1.9,1012.7,39.906354,32.805951,-89.4,1043,1.7,74.5,3.71,-1.58,-5.55,14:51:17.171
76.4,0,2.93,-3.33,-9.19,-1.8,1013.6,39.906332,32.805963,-92.8,1044,0.1,76.2,-6.38,4.76,0.0,14:51:17.272
76.6,0,1.63,-5.75,-8.68,-1.7,1014.2,39.906307,32.805951,-87.4,1045,0.4,76.4,2.55,-9.46,-0.01,14:51:17.376
78.0,0,-0.85,-4.17,-10.26,-1.5,1013.2,39.906348,32.805965,-104.1,1046,0.6,78.5,-1.77,-2.71,-1.99,14:51:17.478
79.3,0,3.39,-0.04,-9.2,-1.7,1012.8,39.906343,32.805933,-96.8,1047,0.8,79.2,12.0,-7.68,7.22,14:51:17.578
74.4,0,3.74,-1.52,-10.93,-1.7,1012.9,39.906357,32.805943,-94.0,1048,0.9,73.9,1.2,0.89,6.21,14:51:17.679
75.4,0,-0.85,0.82,-7.27,-1.0,1013.1,39.906368,32.80596,-104.9,1049,1.3,76.7,-4.83,2.22,-2.2,14:51:17.780
75.9,0,-0.18,-0.58,-11.55,-1.4,1014.2,39.906328,32.805957,-88.9,1050,0.7,77.0,-3.21,2.04,0.09,14:51:17.880
73.8,0,-3.63,-1.24,-9.7,-1.6,1013.0,39.906346,32.805959,-95.8,1051,0.5,72.5,0.66,-8.79,-3.71,14:51:17.981
78.9,0,3.44,3.9,-8.79,-1.7,1013.5,39.906365,32.80592,-99.4,1052,1.4,78.7,-8.35,2.45,5.78,14:51:18.082
78.8,0,1.12,0.76,-10.6,-1.7,1013.9,39.906344,32.80594,-101.0,1053,0.4,77.5,8.52,-1.45,-1.53,14:51:18.183
78.0,0,4.74,3.06,-11.73,-1.3,1012.8,39.906375,32.805954,-91.4,1054,2.0,77.7,3.34,-5.69,-1.06,14:51:18.283
75.4,0,-3.95,1.08,-9.26,-1.3,1013.0,39.906361,32.805938,-90.8,1055,0.5,74.2,-6.53,-2.52,9.4,14:51:18.384
76.2,0,-5.1,-1.22,-9.7,-1.2,1012.8,39.906387,32.805946,-99.1,1056,1.2,77.1,-1.37,0.29,8.77,14:51:18.485
77.2,0,3.6,0.44,-8.98,-1.3,1013.4,39.906342,32.805964,-95.9,1057,1.7,77.4,-2.88,-1.06,5.09,14:51:18.587
75.4,0,-0.12,1.47,-8.57,-1.5,1013.0,39.906382,32.805966,-94.4,1058,0.1,76.1,1.52,11.66,-2.23,14:51:18.687
78.3,0,-0.33,-3.44,-9.85,-1.9,1013.8,39.906345,32.80594,-95.4,1059,0.6,78.1,3.34,-3.32,8.82,14:51:18.788
79.8,0,3.55,-0.49,-8.83,-1.3,1013.0,39.906385,32.805941,-92.4,1060,0.7,78.8,2.21,0.21,-2.83,14:51:18.889
77.8,0,-0.98,1.04,-8.89,-1.7,1013.7,39.906355,32.805966,-91.5,1061,1.2,77.7,1.14,-0.41,3.91,14:51:18.990
76.6,0,-1.62,0.24,-9.35,-1.4,1013.5,39.906358,32.805934,-99.7,1062,0.8,76.6,-9.14,3.66,-1.94,14:51:19.090
80.8,0,3.08,-2.26,-11.32,-1.3,1013.2,39.906357,32.805957,-95.1,1063,1.4,82.0,3.1,-8.58,8.42,14:51:19.191
82.7,0,-0.2,0.96,-10.4,-1.3,1012.8,39.906333,32.805977,-95.1,1064,1.3,81.8,-3.53,0.66,-6.09,14:51:19.292
78.2,0,1.83,2.09,-8.96,-1.8,1011.9,39.906362,32.806004,-85.3,1065,0.6,77.2,6.17,-11.02,3.23,14:51:19.392
81.2,0,0.33,2.78,-11.19,-1.8,1013.9,39.906372,32.805977,-91.1,1066,0.2,80.4,-1.08,-0.2,-1.09,14:51:19.493
79.0,0,3.62,2.08,-10.39,-1.5,1013.9,39.90638,32.805965,-87.1,1067,0.2,78.0,-7.34,-1.65,-4.46,14:51:19.594
74.2,0,-1.7,3.4,-9.12,-2.2,1013.0,39.906381,32.805952,-100.5,1068,0.1,75.5,4.94,-6.35,-0.49,14:51:19.695
79.0,0,0.43,-5.71,-8.55,-1.4,1013.6,39.90633,32.805945,-87.3,1069,0.9,79.2,1.5,6.92,2.32,14:51:19.796
80.3,0,2.64,-0.61,-10.64,-1.7,1013.8,39.906356,32.806004,-90.4,1070,1.4,80.4,1.11,-2.42,13.68,14:51:19.897
78.9,0,-3.83,2.75,-10.48,-1.3,1012.7,39.906327,32.805968,-86.9,1071,0.8,80.0,1.7,2.7,3.71,14:51:19.997
75.0,0,3.75,-0.81,-10.46,-2.1,1013.4,39.906371,32.805988,-94.2,1072,1.7,71.7,0.57,-6.97,6.44,14:51:20.098
78.7,0,0.73,1.74,-11.13,-1.1,1013.0,39.906367,32.805971,-88.9,1073,1.0,79.3,-2.89,3.4,0.93,14:51:20.199
80.8,0,0.29,-2.22,-7.69,-1.4,1013.0,39.90643,32.805979,-101.6,1074,0.5,81.2,11.79,-4.9,0.1,14:51:20.300
77.4,0,-1.43,2.82,-9.31,-1.2,1012.4,39.906378,32.805921,-101.9,1075,0.6,75.8,-9.2,2.2,-2.34,14:51:20.400
80.7,0,0.41,1.17,-11.27,-1.7,1014.3,39.906383,32.80601,-101.8,1076,1.1,81.8,0.31,-1.75,-0.92,14:51:20.501
75.0,0,2.56,2.33,-11.42,-1.4,1012.2,39.906369,32.805994,-94.8,1077,0.8,76.0,-0.59,0.7,1.08,14:51:20.602
80.1,0,0.45,-1.9,-9.87,-1.3,1013.5,39.90636,32.805948,-102.1,1078,0.3,79.0,-6.4,-12.87,2.01,14:51:20.703
76.8,0,-1.17,0.71,-11.86,-1.8,1012.9,39.906379,32.805994,-87.9,1079,1.0,76.8,-3.45,1.48,0.9,14:51:20.805
77.0,0,3.51,2.29,-9.88,-1.4,1013.1,39.906343,32.805993,-88.2,1080,1.3,74.4,1.12,4.4,2.5,14:51:20.906
72.3,0,2.0,-1.85,-9.92,-1.8,1013.4,39.906409,32.805973,-95.6,1081,0.1,73.5,8.9,11.73,2.23,14:51:21.007
74.4,0,-1.5,-0.23,-10.13,-1.5,1013.1,39.906445,32.805983,-86.6,1082,1.1,72.9,-2.67,2.28,1.62,14:51:21.108
78.4,0,-1.09,-2.72,-7.89,-1.5,1013.7,39.906428,32.805987,-94.2,1083,0.7,78.6,-1.66,-3.41,-1.85,14:51:21.208
79.4,0,-1.12,-1.45,-8.68,-1.5,1013.4,39.906408,32.805993,-97.6,1084,0.6,77.6,-6.95,0.75,0.14,14:51:21.309
73.3,0,-3.52,2.23,-11.71,-1.3,1013.5,39.906382,32.805984,-89.2,1085,0.7,73.6,-3.64,0.43,-0.27,14:51:21.409
77.0,0,-2.91,-0.7,-11.35,-0.8,1012.7,39.906339,32.806013,-98.6,1086,1.8,75.4,0.57,-0.11,-12.27,14:51:21.510
77.9,0,-1.7,2.78,-8.1,-1.8,1012.9,39.906415,32.805981,-85.9,1087,0.6,78.8,-5.71,5.29,3.92,14:51:21.611
78.2,0,-1.85,-0.47,-11.71,-1.6,1013.6,39.906371,32.805974,-95.1,1088,1.8,78.0,2.8,6.2,9.24,14:51:21.712
71.0,0,-1.93,-4.23,-10.15,-1.1,1013.0,39.906409,32.806044,-96.2,1089,1.1,70.5,-10.66,0.59,5.37,14:51:21.813
75.4,0,3.59,6.53,-8.94,-1.7,1013.3,39.906391,32.805972,-90.2,1090,1.0,73.5,2.74,6.51,9.99,14:51:21.914
74.6,0,-2.42,-2.31,-10.99,-1.3,1013.9,39.906387,32.806028,-85.9,1091,0.5,75.1,-15.13,7.79,0.82,14:51:22.014
73.4,0,0.89,-3.37,-10.88,-2.0,1012.4,39.906362,32.806,-89.1,1092,0.6,73.2,-0.94,5.76,-5.23,14:51:22.115
75.8,0,-0.11,-4.06,-9.82,-2.2,1013.0,39.906365,32.805977,-95.4,1093,1.2,75.9,2.99,0.03,-5.2,14:51:22.216
77.3,0,-1.78,-4.07,-9.33,-1.6,1013.1,39.906389,32.805983,-100.9,1094,1.3,78.2,3.29,-2.51,8.38,14:51:22.316
73.3,0,4.32,1.17,-10.14,-1.2,1013.4,39.906378,32.806014,-87.9,1095,0.6,73.8,5.44,6.88,3.52,14:51:22.418
76.6,0,-0.28,-7.38,-9.63,-1.7,1013.6,39.906391,32.805983,-102.2,1096,1.0,76.3,-1.49,4.32,2.22,14:51:22.518
74.3,0,-2.96,-3.01,-11.54,-1.4,1012.7,39.906428,32.806006,-96.7,1097,0.5,74.7,2.0,-4.38,-0.3,14:51:22.620
72.0,0,0.75,-1.44,-11.14,-1.1,1013.3,39.906386,32.806007,-97.1,1098,1.2,71.9,-3.26,-8.45,-4.44,14:51:22.721
71.0,0,-3.87,5.58,-7.92,-1.5,1013.5,39.906421,32.805997,-99.0,1099,1.6,70.5,1.36,-4.89,-3.93,14:51:22.822
76.6,0,1.6,-0.95,-11.61,-1.9,1013.0,39.906379,32.805992,-85.5,1100,0.4,76.4,4.92,2.05,7.84,14:51:22.924
74.7,0,2.52,0.73,-8.3,-1.2,1012.6,39.906406,32.805999,-101.7,1101,0.7,73.6,1.49,5.45,-5.04,14:51:23.025
75.8,0,-1.71,-0.86,-9.25,-1.0,1012.9,39.9064,32.806028,-97.2,1102,0.7,74.9,2.52,4.05,3.0,14:51:23.126
75.5,0,0.94,0.84,-7.56,-1.4,1013.4,39.906416,32.805989,-91.0,1103,0.0,75.9,8.03,5.87,1.8,14:51:23.228
76.1,0,2.01,-0.58,-10.19,-1.8,1013.4,39.906433,32.806002,-89.7,1104,0.6,76.4,-2.0,6.78,-3.04,14:51:23.328
72.4,0,-1.09,3.15,-9.43,-2.4,1013.5,39.906412,32.80601,-95.7,1105,2.0,71.1,-1.58,6.35,-6.38,14:51:23.429
71.8,0,-2.45,0.83,-9.29,-1.8,1013.5,39.906404,32.806022,-91.9,1106,1.9,71.4,-0.66,-2.99,-7.64,14:51:23.530
70.4,0,-1.67,1.5,-9.41,-1.5,1013.1,39.906392,32.805995,-87.2,1107,0.8,69.4,8.32,15.66,1.5,14:51:23.631
71.3,0,2.27,-0.61,-8.48,-1.6,1013.4,39.906387,32.805988,-102.0,1108,1.2,71.3,0.66,0.23,1.37,14:51:23.731
76.5,0,2.08,-1.45,-8.67,-1.5,1012.8,39.906387,32.805978,-91.8,1109,1.2,73.9,-0.39,-6.71,-1.19,14:51:23.832
73.0,0,-1.71,-1.26,-7.9,-1.3,1012.9,39.906405,32.806008,-88.1,1110,0.2,73.2,-0.04,4.11,10.87,14:51:23.933
71.9,0,1.67,-1.04,-9.23,-1.3,1012.0,39.906424,32.805988,-91.8,1111,1.3,71.5,8.91,-1.49,-0.3,14:51:24.034
69.5,0,2.11,0.98,-10.19,-1.6,1013.2,39.90644,32.806019,-103.2,1112,0.6,68.9,-6.79,4.71,-0.29,14:51:24.135
72.0,0,0.96,-0.39,-9.56,-1.6,1012.4,39.906412,32.806042,-95.2,1113,0.6,73.3,-13.2,1.06,-1.08,14:51:24.236
73.9,0,2.86,-4.5,-10.54,-1.3,1013.6,39.906391,32.805987,-98.2,1114,1.7,74.4,2.72,-1.27,1.56,14:51:24.340
70.4,0,-0.52,-0.24,-8.28,-1.7,1012.4,39.906423,32.806005,-100.4,1115,0.3,70.3,-1.24,2.16,9.3,14:51:24.447
71.7,0,0.92,-2.36,-10.69,-1.0,1012.7,39.906401,32.806015,-93.6,1116,1.9,70.3,4.99,5.13,4.8,14:51:24.564
70.8,0,-4.56,2.22,-11.15,-1.4,1013.5,39.906409,32.806051,-104.2,1117,0.5,71.4,3.57,1.42,0.74,14:51:24.670
69.8,0,2.21,-0.02,-6.76,-1.6,1013.5,39.906411,32.806032,-86.1,1118,1.5,68.7,0.0,-10.2,-2.53,14:51:24.771
71.6,0,0.48,-0.06,-10.86,-1.1,1013.1,39.906439,32.806042,-100.6,1119,1.3,71.7,-2.11,-0.05,-10.39,14:51:24.876
68.2,0,3.75,-0.73,-9.98,-1.0,1013.4,39.906428,32.806035,-92.7,1120,1.4,67.1,-8.74,0.94,-6.25,14:51:24.978
