velocity,altitude,accel_x,accel_y,accel_z,temperature,pressure,latitude,longitude,sinyal_gücü,paket_no,paket_kaybi,vertical_velocity,gyro_x,gyro_y,gyro_z,timestamp,altitude_raw,altitude_kalman,velocity_raw,velocity_kalman,vertical_velocity_raw,vertical_velocity_kalman
1.3,13.2,1.43,2.62,-8.53,-1.6,1012.0,39.905326,32.804894,-85.2,1,0.1,-0.3,-5.96,5.6,-4.64,12:58:21.179,13.2,13.2,1.3,1.3,-0.3,-0.3
40.7,0.0,-1.3,-0.68,-8.77,-1.8,1013.2,39.90651,32.806078,-90.4,1200,0.4,38.5,1.49,5.0,2.22,12:58:21.229,0,0.0,38.6,40.7,36.4,38.5
3.4,0.0,2.3,-2.07,-10.32,-1.7,1013.7,39.907656,32.807276,-95.8,2350,0.2,1.5,4.13,9.15,4.09,12:58:21.279,0,0.0,0,3.4,0.4,1.5
0.0,0.0,2.98,4.35,-10.45,-1.4,1013.5,39.908971,32.808584,-92.0,3695,0.9,-0.0,2.07,-7.34,4.8,12:58:21.329,0,0.0,0,0.0,-0.3,-0.0
106.3,0.0,-2.31,-3.9,-8.18,-1.5,1012.9,39.910196,32.809847,-90.0,4898,1.7,102.3,-3.67,2.55,-9.13,12:58:21.379,0,0.0,100.2,106.3,99.0,102.3
133.3,2723.2,1.26,-1.31,-9.14,-17.5,736.5,39.911981,32.81155,-85.0,6648,1.1,131.1,-1.67,2.98,-1.18,12:58:21.430,2713.5,2723.2,129.5,133.3,130.0,131.1
0.0,2683.7,1.32,1.37,-10.83,-17.8,736.8,39.913124,32.812675,-92.6,7798,1.8,0.2,1.77,-1.37,2.46,12:58:21.495,2699.6,2683.7,0,0.0,1.2,0.2
0.0,0.0,1.3,0.99,-9.49,-1.6,1012.6,39.914019,32.81369,-88.6,8765,1.6,-0.2,0.55,-1.81,10.25,12:58:21.545,0,0.0,0,0.0,0.8,-0.2
0.0,0.0,-1.32,2.88,-10.1,-1.1,1012.9,39.915305,32.814884,-101.6,9997,2.0,0.3,-6.8,-8.12,13.35,12:58:21.595,0,0.0,0,0.0,0.2,0.3
47.8,0.0,-1.16,2.08,-8.34,-1.8,1013.9,39.916567,32.816155,-95.3,11257,0.0,44.2,-0.25,1.08,-2.81,12:58:21.647,0,0.0,41.9,47.8,42.2,44.2
122.9,2069.5,1.88,1.03,-8.08,-14.4,793.2,39.918018,32.817623,-103.5,12735,1.5,124.9,7.82,-4.76,7.32,12:58:21.712,2078.8,2069.5,130.4,122.9,129.8,124.9
0.2,423.2,-1.31,1.91,-11.81,-4.2,960.1,39.919207,32.818738,-96.0,13855,0.8,1.0,9.93,6.78,2.45,12:58:21.763,463.0,423.2,0,0.2,2.5,1.0
13.1,598.3,-1.53,1.68,-12.14,-5.7,941.6,39.920408,32.820026,-98.4,15125,1.2,15.3,-3.83,-3.14,9.75,12:58:21.813,621.1,598.3,17.0,13.1,18.3,15.3
0.0,0.0,3.68,-2.22,-11.55,-1.4,1012.8,39.921591,32.821171,-102.0,16273,0.8,-0.2,5.58,-2.52,4.04,12:58:21.864,0,0.0,0,0.0,-1.4,-0.2
2.6,100.3,2.18,-3.01,-9.04,-2.0,996.1,39.922894,32.822483,-103.2,17602,1.9,0.4,-3.93,5.75,-3.73,12:58:21.914,140.0,100.3,0,2.6,-0.4,0.4
0.0,0.0,-0.94,-3.29,-8.72,-1.3,1013.2,39.924064,32.82364,-92.3,18740,0.0,0.4,-2.76,-4.32,-1.2,12:58:21.963,0,0.0,0,0.0,-0.7,0.4
0.0,2545.5,-2.56,-0.99,-8.38,-16.7,752.3,39.925819,32.825426,-102.3,20508,1.8,0.3,-0.44,-3.1,-2.26,12:58:22.014,2529.7,2545.5,0,0.0,0.2,0.3
150.2,2704.6,3.03,1.11,-10.65,-17.7,738.4,39.927047,32.826613,-89.6,21731,0.9,149.8,-3.03,5.5,-5.02,12:58:22.079,2692.1,2704.6,148.4,150.2,147.3,149.8
0.0,2469.2,2.79,2.43,-11.22,-16.8,758.9,39.928355,32.827936,-104.6,23033,0.3,0.1,7.06,9.14,2.94,12:58:22.130,2451.1,2469.2,0,0.0,-0.8,0.1
0.0,2658.5,1.42,-0.41,-6.12,-17.1,741.4,39.929562,32.829193,-90.8,24257,0.1,0.5,3.59,-6.75,-7.38,12:58:22.180,2655.3,2658.5,0,0.0,0.7,0.5
44.9,0.0,0.06,2.35,-10.04,-1.6,1013.4,39.931364,32.830975,-101.7,26054,1.8,46.5,6.11,2.78,8.34,12:58:22.245,0,0.0,48.5,44.9,48.3,46.5
76.5,0.0,3.03,1.52,-8.51,-2.0,1012.9,39.932568,32.832152,-94.9,27257,1.5,75.7,9.56,-6.07,-4.01,12:58:22.295,0,0.0,74.4,76.5,74.5,75.7
0.2,0.0,-3.28,-2.28,-7.78,-1.4,1013.7,39.933616,32.833236,-90.0,28307,1.3,-0.7,-0.96,-1.29,-3.94,12:58:22.346,0,0.0,0,0.2,-1.0,-0.7
0.0,2799.7,-0.33,-0.38,-8.78,-18.0,729.7,39.934561,32.834137,-92.0,29228,1.9,0.1,-8.9,5.55,-1.41,12:58:22.396,2796.1,2799.7,0,0.0,0.3,0.1
0.0,2800.9,1.31,-0.18,-10.55,-18.9,729.3,39.935804,32.835406,-100.8,30483,1.7,-0.1,1.13,0.24,1.34,12:58:22.447,2802.3,2800.9,0,0.0,-0.1,-0.1
150.2,2775.8,-0.09,-1.37,-10.29,-18.3,730.8,39.936997,32.836656,-99.1,31707,1.4,148.9,5.49,-8.09,0.5,12:58:22.513,2780.5,2775.8,148.3,150.2,146.4,148.9
0.0,2770.5,-1.71,0.73,-10.3,-18.4,731.2,39.93833,32.837898,-90.4,33017,2.0,-0.4,2.19,0.42,-0.9,12:58:22.564,2773.0,2770.5,0,0.0,-0.2,-0.4
103.5,1608.2,2.13,5.17,-7.93,-10.3,841.4,39.939757,32.83931,-101.8,34437,1.4,100.7,5.84,-0.61,-2.54,12:58:22.619,1584.2,1608.2,98.1,103.5,99.8,100.7
0.0,1556.9,-0.08,-0.45,-9.03,-10.5,847.6,39.941006,32.840617,-85.7,35698,0.6,0.4,0.58,-1.48,-3.18,12:58:22.667,1521.7,1556.9,0,0.0,1.1,0.4
0.0,2713.1,-0.75,0.61,-10.3,-18.2,737.6,39.942053,32.841695,-95.4,36806,2.0,-0.4,-8.78,-2.85,-3.69,12:58:22.714,2694.1,2713.1,0,0.0,-0.7,-0.4
8.1,200.5,0.64,-4.1,-8.59,-3.1,985.1,39.943025,32.842621,-99.6,37715,1.9,10.5,1.54,2.33,-0.98,12:58:22.776,243.6,200.5,14.3,8.1,13.9,10.5
39.6,0.0,0.29,-0.49,-11.78,-1.5,1012.7,39.943922,32.843464,-99.9,38604,1.0,41.4,-0.65,2.41,-1.69,12:58:22.816,0,0.0,43.7,39.6,44.0,41.4
77.1,0.0,-1.62,-0.18,-11.15,-1.2,1012.9,39.945047,32.844631,-88.3,39764,1.7,76.7,1.83,-0.15,3.36,12:58:22.879,0,0.0,80.1,77.1,79.8,76.7
95.2,1456.5,-0.79,2.65,-9.23,-10.5,856.4,39.946034,32.845668,-103.7,40733,0.6,91.3,-5.61,4.09,-2.33,12:58:22.929,1428.3,1456.5,90.3,95.2,88.3,91.3
7.7,1521.8,-0.64,-2.73,-8.02,-10.9,843.6,39.946867,32.846506,-103.8,41585,1.5,6.5,1.12,-3.79,4.26,12:58:22.980,1560.6,1521.8,7.0,7.7,5.9,6.5
67.4,0.0,-0.41,1.23,-11.54,-1.6,1013.1,39.947929,32.847525,-96.8,42647,1.4,63.5,8.35,-5.27,-2.69,12:58:23.046,0,0.0,60.1,67.4,59.8,63.5
4.0,151.6,-1.22,1.42,-12.86,-2.4,1000.9,39.948656,32.848249,-100.1,43344,0.9,3.3,3.36,6.26,0.99,12:58:23.084,106.3,151.6,0,4.0,0.7,3.3
11.3,251.2,1.72,4.24,-8.15,-2.6,978.9,39.949333,32.848894,-93.2,44002,0.6,13.8,5.05,3.21,-6.47,12:58:23.131,289.7,251.2,16.8,11.3,16.2,13.8
13.5,455.4,-3.56,5.27,-9.31,-4.0,965.1,39.949869,32.849506,-103.3,44580,1.6,12.1,-0.2,-1.71,2.87,12:58:23.197,418.1,455.4,12.4,13.5,13.1,12.1
44.4,0.0,0.07,-2.3,-10.35,-1.4,1013.2,39.95047,32.850091,-104.3,45176,0.2,42.4,5.76,0.01,2.63,12:58:23.247,0,0.0,39.2,44.4,41.7,42.4
77.8,0.0,-0.43,-2.48,-11.11,-1.7,1013.4,39.951368,32.851009,-88.6,46083,0.6,76.8,-3.94,-1.74,-5.62,12:58:23.313,0,0.0,75.1,77.8,73.6,76.8
149.7,2658.5,4.1,0.32,-12.62,-17.4,741.2,39.95217,32.851771,-85.8,46876,1.0,148.4,5.42,-4.28,6.44,12:58:23.362,2657.0,2658.5,148.4,149.7,146.0,148.4
0.0,0.0,2.5,-0.24,-11.23,-1.5,1013.3,39.953043,32.852632,-87.4,47708,0.4,-0.1,-7.22,11.73,-2.0,12:58:23.413,0,0.0,0,0.0,0.3,-0.1
159.1,0.0,-4.56,1.03,-9.08,-2.0,1012.9,39.954117,32.853721,-95.6,48795,1.5,156.9,3.3,0.31,4.3,12:58:23.463,0,0.0,154.0,159.1,153.1,156.9
0.0,0.0,0.07,-1.52,-9.81,-1.4,1013.1,39.955016,32.854618,-85.5,49710,1.9,-0.7,2.91,3.69,-0.3,12:58:23.513,0,0.0,0,0.0,-2.8,-0.7
117.2,2552.5,-2.24,5.22,-9.95,-17.4,752.1,39.955962,32.85555,-102.7,50667,0.2,114.1,1.8,-8.31,9.54,12:58:23.564,2541.7,2552.5,112.5,117.2,112.2,114.1
0.0,2788.0,1.85,-1.94,-8.56,-18.3,729.7,39.957108,32.856672,-103.3,51822,0.7,-0.2,1.03,1.87,-4.12,12:58:23.613,2794.8,2788.0,0,0.0,-0.1,-0.2
143.5,2416.9,-0.88,1.63,-8.21,-15.9,763.4,39.958523,32.858079,-97.5,53202,1.5,142.3,2.64,-0.38,-2.48,12:58:23.678,2403.6,2416.9,143.7,143.5,142.6,142.3
0.0,2097.8,3.36,-0.46,-11.8,-14.0,792.7,39.959807,32.859363,-102.9,54497,0.6,0.2,6.72,3.85,0.21,12:58:23.729,2086.4,2097.8,0,0.0,0.7,0.2
0.0,2756.6,0.1,-0.7,-8.34,-18.3,734.1,39.96095,32.860561,-101.4,55643,1.8,0.0,4.22,1.03,1.57,12:58:23.780,2741.2,2756.6,0,0.0,0.2,0.0
29.2,943.4,1.93,-1.53,-8.86,-7.2,912.2,39.962423,32.862009,-104.0,57111,1.2,26.1,-6.96,2.93,-5.99,12:58:23.830,892.6,943.4,25.8,29.2,25.2,26.1
0.0,1429.0,2.3,-2.18,-8.85,-9.5,860.1,39.963615,32.863223,-88.0,58329,1.8,-0.1,-1.83,-1.45,2.23,12:58:23.896,1392.3,1429.0,0,0.0,-1.2,-0.1
79.8,1195.5,-1.33,0.47,-6.45,-8.4,884.9,39.964876,32.864502,-87.2,59605,1.8,76.3,-4.81,-9.78,2.07,12:58:23.930,1158.2,1195.5,74.8,79.8,73.8,76.3
0.0,82.8,3.26,-2.41,-10.15,-1.6,1007.2,39.966244,32.865854,-104.2,60944,1.4,-0.0,1.77,3.05,-1.33,12:58:23.996,50.0,82.8,0,0.0,0.2,-0.0
5.5,239.1,-3.43,2.15,-10.88,-3.0,989.7,39.967488,32.86709,-95.3,62189,0.1,4.8,3.71,-2.76,-0.61,12:58:24.047,195.2,239.1,7.3,5.5,6.3,4.8
0.0,0.0,-0.64,1.68,-11.15,-1.5,1013.1,39.968868,32.868476,-91.1,63559,1.9,0.3,-3.71,7.1,-5.47,12:58:24.112,0,0.0,0,0.0,1.1,0.3
0.0,1495.8,-0.85,0.79,-10.31,-10.2,853.4,39.969907,32.869499,-100.8,64607,1.5,0.2,3.06,7.89,-3.93,12:58:24.163,1463.2,1495.8,0,0.0,-0.7,0.2
126.7,2711.3,-2.18,0.86,-10.48,-18.3,735.4,39.97093,32.870492,-99.0,65610,1.1,128.2,-4.8,-3.03,-2.52,12:58:24.214,2731.7,2711.3,132.3,126.7,132.5,128.2
6.1,462.5,-0.15,-2.74,-11.01,-3.9,956.6,39.97194,32.871545,-99.2,66638,1.6,7.1,2.1,-4.29,0.98,12:58:24.263,497.1,462.5,7.7,6.1,7.8,7.1
62.8,0.0,1.59,-1.41,-8.52,-1.6,1013.4,39.973055,32.872669,-102.0,67787,1.0,59.2,0.47,3.32,6.55,12:58:24.320,0,0.0,57.0,62.8,55.3,59.2
121.3,2038.7,2.7,3.02,-11.43,-14.1,794.1,39.974572,32.874191,-96.9,69281,1.3,123.1,3.7,-6.74,8.77,12:58:24.378,2073.4,2038.7,124.5,121.3,126.0,123.1
0.0,1038.7,-6.26,-0.57,-9.92,-7.9,892.1,39.975734,32.875346,-90.2,70450,0.9,0.5,-4.32,-8.36,-5.28,12:58:24.429,1077.6,1038.7,0,0.0,1.6,0.5
9.4,481.5,-2.16,-0.84,-10.39,-4.4,952.8,39.976978,32.876538,-90.6,71665,1.7,11.6,-14.32,-0.51,1.34,12:58:24.479,519.8,481.5,11.4,9.4,12.8,11.6
0.0,0.0,-0.52,-1.57,-8.31,-1.3,1012.8,39.9781,32.877701,-87.3,72800,1.9,-0.4,1.54,2.19,7.78,12:58:24.530,0,0.0,0,0.0,-0.5,-0.4
0.0,1293.8,3.09,-2.71,-11.07,-9.3,866.6,39.979526,32.879128,-95.4,74241,1.8,0.2,1.86,-1.67,1.36,12:58:24.595,1327.1,1293.8,0,0.0,0.7,0.2
79.9,1350.9,2.49,-2.32,-13.13,-9.4,860.3,39.980834,32.880401,-98.0,75501,2.0,83.0,2.99,5.94,-5.31,12:58:24.646,1383.4,1350.9,85.8,79.9,86.0,83.0
0.0,923.4,-1.81,0.79,-10.76,-7.1,905.7,39.982007,32.881629,-92.1,76725,1.6,-0.1,0.43,4.21,-0.72,12:58:24.696,952.7,923.4,0,0.0,0.4,-0.1
0.0,0.0,1.03,3.36,-11.71,-1.4,1012.8,39.983239,32.882771,-93.8,77899,1.2,-0.6,-2.85,1.09,-1.97,12:58:24.746,0,0.0,0,0.0,-1.3,-0.6
0.0,0.0,0.8,0.02,-10.16,-1.6,1014.1,39.984344,32.883967,-93.9,79064,0.1,0.1,-1.93,-0.08,5.63,12:58:24.797,0,0.0,0,0.0,-0.8,0.1
11.8,0.0,3.54,-1.79,-9.46,-1.7,1013.4,39.985708,32.885333,-92.7,80418,0.3,8.7,2.04,-0.31,-2.98,12:58:24.847,0,0.0,4.9,11.8,5.0,8.7
0.0,0.0,-0.09,0.06,-9.38,-1.9,1014.0,39.986904,32.886537,-93.4,81602,1.6,-0.4,-2.03,-5.14,-1.07,12:58:24.897,0,0.0,0,0.0,0.3,-0.4
50.8,0.0,-0.7,-0.44,-10.82,-1.2,1012.4,39.987908,32.887528,-100.3,82619,0.5,51.8,5.3,-2.97,-7.43,12:58:24.946,0,0.0,53.5,50.8,53.2,51.8
52.4,0.0,0.69,1.51,-10.41,-1.4,1013.7,39.989202,32.888841,-93.1,83899,0.9,50.9,-3.83,-3.97,0.43,12:58:24.999,0,0.0,50.6,52.4,50.5,50.9
0.0,0.0,0.7,2.07,-12.28,-1.5,1013.3,39.990501,32.890143,-91.8,85211,1.1,0.1,-1.8,1.4,2.35,12:58:25.047,0,0.0,0,0.0,-1.5,0.1
133.0,0.0,-2.53,-2.6,-9.77,-1.4,1014.4,39.991588,32.891151,-102.8,86264,1.8,135.7,2.73,-0.01,0.22,12:58:25.112,0,0.0,138.6,133.0,138.4,135.7
0.0,0.0,2.22,-1.09,-11.66,-1.5,1012.9,39.992699,32.892314,-95.5,87425,0.7,-0.4,-4.86,-7.02,1.41,12:58:25.163,0,0.0,0,0.0,-0.3,-0.4
0.0,0.0,2.61,-0.72,-11.72,-1.8,1014.0,39.993983,32.893584,-85.8,88685,0.1,0.0,1.83,-7.33,3.58,12:58:25.213,0,0.0,0,0.0,-0.3,0.0
53.7,0.0,-0.13,1.47,-10.17,-1.1,1013.4,39.995237,32.8949,-93.2,89945,1.9,55.6,-1.48,-1.48,-0.95,12:58:25.264,0,0.0,55.0,53.7,54.9,55.6
0.0,0.0,2.82,4.44,-9.44,-1.2,1013.4,39.996498,32.896081,-92.4,91189,1.7,0.3,13.54,1.21,1.23,12:58:25.313,0,0.0,0,0.0,1.0,0.3
116.6,0.0,3.85,-0.83,-8.6,-1.5,1013.6,39.998122,32.89776,-86.1,92850,0.9,113.5,-7.36,4.24,-6.78,12:58:25.378,0,0.0,111.5,116.6,110.6,113.5
0.0,0.0,1.22,-0.06,-10.49,-1.6,1013.2,39.999324,32.898961,-99.4,94066,1.0,-0.4,3.69,0.76,0.62,12:58:25.429,0,0.0,0,0.0,-0.3,-0.4
36.9,0.0,-3.81,-1.66,-8.49,-1.2,1013.2,40.000416,32.900014,-104.4,95149,0.1,37.6,-1.85,-4.0,2.63,12:58:25.479,0,0.0,38.4,36.9,37.4,37.6
75.5,0.0,0.74,-1.1,-7.45,-1.9,1012.7,40.001617,32.901237,-101.0,96316,0.8,75.8,-1.55,0.91,-0.28,12:58:25.530,0,0.0,76.8,75.5,77.2,75.8
0.0,0.0,4.72,-3.66,-9.07,-1.8,1014.0,40.003107,32.902735,-94.8,97808,1.5,-0.0,-6.42,-6.05,-1.26,12:58:25.580,0,0.0,0,0.0,0.2,-0.0
74.1,0.0,-0.65,-0.5,-10.25,-1.4,1012.8,40.004451,32.904092,-88.3,99188,1.5,70.6,3.11,-2.0,-3.17,12:58:25.646,0,0.0,67.0,74.1,67.1,70.6
0.0,0.0,-0.82,-1.86,-9.93,-1.7,1012.7,40.005579,32.905174,-88.6,100259,1.9,0.8,-6.03,1.42,-1.18,12:58:25.696,0,0.0,0,0.0,1.1,0.8
25.4,0.0,3.12,4.6,-8.14,-1.8,1014.4,40.006699,32.906277,-90.6,101402,0.4,26.9,-14.7,4.83,-5.71,12:58:25.745,0,0.0,28.0,25.4,26.7,26.9
73.0,0.0,2.06,1.85,-10.2,-1.4,1013.9,40.007853,32.907494,-104.3,102574,1.9,73.2,-6.85,3.08,7.71,12:58:25.796,0,0.0,72.6,73.0,71.0,73.2
0.0,0.0,1.23,2.86,-7.99,-1.2,1012.5,40.009248,32.908804,-101.4,103909,0.8,-0.1,-5.23,-7.13,3.97,12:58:25.847,0,0.0,0,0.0,-0.1,-0.1
0.2,76.5,-3.89,2.96,-12.02,-1.6,1007.9,40.010204,32.909835,-102.7,104927,0.1,-0.1,-10.37,-3.0,0.31,12:58:25.900,43.8,76.5,1.6,0.2,0.7,-0.1
0.0,2514.3,-1.24,-1.46,-11.93,-16.6,755.2,40.011291,32.910876,-94.1,105966,0.7,-0.1,-0.3,7.88,-8.56,12:58:25.951,2496.5,2514.3,0,0.0,0.5,-0.1
150.5,2745.6,1.09,-0.6,-9.0,-17.6,734.9,40.01243,32.912017,-96.6,107094,0.1,150.2,-6.12,2.01,1.0,12:58:26.003,2736.9,2745.6,151.3,150.5,152.7,150.2
0.0,2786.5,-2.83,4.23,-12.01,-18.0,732.5,40.013707,32.913307,-100.6,108407,0.2,0.3,-6.24,-2.33,0.47,12:58:26.062,2767.3,2786.5,0,0.0,0.8,0.3
144.3,2800.1,3.73,1.15,-10.31,-18.1,728.7,40.014973,32.914519,-88.5,109644,1.1,144.7,-2.58,-4.37,-2.81,12:58:26.113,2801.8,2800.1,146.6,144.3,147.6,144.7
0.0,2290.4,-0.16,-1.82,-11.25,-15.6,772.5,40.016112,32.915696,-96.4,110779,1.4,0.8,2.06,-4.4,-0.07,12:58:26.162,2309.9,2290.4,0,0.0,1.0,0.8
0.0,2116.0,-2.8,0.27,-11.27,-14.2,784.6,40.017348,32.916907,-87.0,112014,0.7,0.1,-1.28,-1.94,5.8,12:58:26.213,2164.0,2116.0,0,0.0,-1.3,0.1
69.8,1181.1,1.3,3.72,-10.58,-8.7,878.8,40.018513,32.918063,-97.6,113187,0.4,73.0,5.06,-4.83,-6.87,12:58:26.263,1216.0,1181.1,72.7,69.8,73.4,73.0
53.6,0.0,-0.65,3.35,-11.31,-1.8,1012.9,40.019578,32.919189,-100.7,114273,1.3,51.5,5.44,-1.83,1.55,12:58:26.313,0,0.0,51.6,53.6,51.9,51.5
0.0,0.0,0.94,-0.44,-9.59,-1.3,1013.5,40.020844,32.920367,-99.3,115502,1.9,0.1,7.5,0.23,0.71,12:58:26.364,0,0.0,0,0.0,0.4,0.1
0.0,2783.5,-1.33,-0.27,-9.76,-18.0,730.6,40.022497,32.92211,-104.6,117206,0.3,0.0,0.55,-1.1,-1.25,12:58:26.429,2780.7,2783.5,0,0.0,0.2,0.0
0.0,2188.3,3.17,-2.79,-9.31,-14.9,781.6,40.023588,32.923185,-93.3,118306,1.9,0.2,-1.31,5.48,1.34,12:58:26.479,2206.4,2188.3,0,0.0,0.8,0.2
42.4,746.3,-0.86,-0.46,-9.58,-6.6,923.7,40.024732,32.924362,-89.7,119437,0.6,46.4,3.45,-4.38,7.35,12:58:26.530,791.5,746.3,50.9,42.4,52.3,46.4
76.4,0.0,-1.97,4.86,-8.82,-1.1,1013.5,40.025777,32.925346,-104.5,120467,0.1,75.6,-0.01,-9.17,-3.69,12:58:26.580,0,0.0,79.0,76.4,80.0,75.6
114.1,2572.0,0.22,3.21,-8.7,-17.2,747.3,40.027414,32.927037,-87.1,122131,0.2,115.0,-5.55,1.21,-2.53,12:58:26.630,2588.9,2572.0,117.9,114.1,116.0,115.0
0.8,2087.0,-1.42,-4.8,-10.38,-14.1,790.4,40.028659,32.928225,-91.6,123321,1.5,0.2,3.78,-8.94,4.01,12:58:26.696,2114.6,2087.0,0,0.8,-1.1,0.2
48.1,0.0,0.15,2.52,-9.83,-1.2,1012.8,40.029628,32.929236,-92.1,124353,1.7,43.8,-3.35,1.67,-0.54,12:58:26.746,0,0.0,41.0,48.1,40.7,43.8
0.0,0.0,0.99,-0.29,-9.89,-1.7,1014.0,40.030902,32.930535,-102.0,125622,0.7,0.3,-3.7,8.18,0.12,12:58:26.797,0,0.0,0,0.0,0.9,0.3
0.0,2794.7,4.75,-0.41,-10.64,-18.5,728.0,40.032519,32.932125,-98.6,127221,0.3,-0.2,-2.02,-5.21,14.66,12:58:26.862,2809.0,2794.7,0,0.0,-1.3,-0.2
115.5,2600.6,-0.08,0.25,-9.69,-17.7,745.1,40.033719,32.933318,-85.1,128417,1.2,117.4,9.43,-3.56,0.02,12:58:26.913,2618.9,2600.6,118.6,115.5,117.9,117.4
0.0,2396.8,3.17,-0.76,-10.22,-16.3,761.3,40.034945,32.934548,-89.1,129641,0.1,-0.4,-2.21,-7.71,-1.02,12:58:26.963,2424.3,2396.8,0,0.0,-0.8,-0.4
87.8,0.0,1.27,2.89,-8.64,-1.8,1013.8,40.035882,32.935491,-97.9,130587,1.5,83.7,5.39,-4.28,-4.42,12:58:27.014,0,0.0,79.3,87.8,78.9,83.7
0.0,0.0,-2.14,-0.07,-8.62,-1.8,1013.0,40.036879,32.936469,-90.4,131600,1.2,0.0,-6.03,-5.22,-2.23,12:58:27.063,0,0.0,0,0.0,-1.1,0.0
0.0,0.0,-1.46,1.24,-9.7,-1.3,1012.9,40.038002,32.937577,-95.9,132687,0.5,0.3,-1.24,4.4,-10.99,12:58:27.118,0,0.0,0,0.0,-0.5,0.3
48.0,0.0,-2.28,-1.97,-8.52,-1.6,1013.6,40.039214,32.938811,-99.7,133918,0.7,49.5,-0.63,-3.88,0.2,12:58:27.163,0,0.0,52.9,48.0,52.1,49.5
119.6,1923.4,1.66,0.66,-9.17,-12.4,809.7,40.040265,32.939901,-95.7,134940,0.7,115.5,2.08,3.76,-6.05,12:58:27.229,1895.5,1923.4,113.6,119.6,112.1,115.5
0.0,2207.5,0.47,-1.41,-9.94,-14.4,783.3,40.041502,32.941058,-94.4,136167,0.6,0.2,8.72,-6.52,0.42,12:58:27.279,2185.0,2207.5,0,0.0,-0.4,0.2
0.0,2172.7,-2.63,0.06,-10.32,-14.4,785.2,40.042713,32.942315,-89.6,137427,0.1,-0.4,7.58,-3.96,-3.57,12:58:27.330,2158.1,2172.7,0,0.0,-1.4,-0.4
101.8,2343.7,-3.71,3.65,-11.51,-15.8,770.9,40.043951,32.943531,-88.7,138663,0.9,98.9,4.02,-1.54,4.15,12:58:27.380,2314.2,2343.7,98.5,101.8,96.9,98.9
0.0,2796.3,0.36,0.26,-9.75,-18.4,729.7,40.045108,32.944716,-91.4,139813,0.9,0.8,6.96,3.13,-1.74,12:58:27.430,2791.7,2796.3,0,0.0,0.6,0.8
0.0,0.0,2.52,-1.04,-10.09,-1.7,1013.8,40.046777,32.946346,-94.8,141443,1.9,-0.1,-1.57,7.31,-2.9,12:58:27.480,0,0.0,0,0.0,0.6,-0.1
62.6,0.0,0.54,2.81,-9.48,-1.4,1013.2,40.048034,32.947614,-103.4,142718,1.8,65.6,-4.7,7.53,-9.55,12:58:27.546,0,0.0,68.8,62.6,67.3,65.6
9.8,1203.1,1.22,3.2,-8.94,-8.6,882.3,40.049116,32.94869,-104.8,143799,1.2,10.1,-4.47,8.52,2.95,12:58:27.596,1171.7,1203.1,10.6,9.8,10.1,10.1
74.5,1930.7,2.08,-0.76,-8.92,-13.3,808.6,40.050262,32.949919,-104.8,144992,0.6,71.3,1.44,-0.86,-4.6,12:58:27.646,1915.8,1930.7,67.1,74.5,66.8,71.3
0.0,1893.1,1.09,1.14,-9.52,-13.0,814.5,40.051536,32.951158,-103.3,146253,0.8,-0.0,-9.88,-10.04,3.01,12:58:27.697,1868.6,1893.1,0,0.0,0.6,-0.0
0.0,0.0,0.95,4.13,-9.32,-1.3,1013.1,40.05309,32.952697,-101.9,147783,1.1,-0.4,1.09,-3.28,1.94,12:58:27.762,0,0.0,0,0.0,-0.9,-0.4
49.9,0.0,3.07,-2.89,-8.05,-1.6,1012.8,40.054256,32.953879,-103.4,148985,1.8,52.7,7.99,2.83,10.75,12:58:27.812,0,0.0,54.6,49.9,54.7,52.7
0.1,0.0,-0.97,3.2,-8.82,-1.5,1012.8,40.055513,32.955103,-88.4,150202,2.0,0.0,3.05,-4.72,1.52,12:58:27.862,0,0.0,0,0.1,0.0,0.0
51.8,1484.4,0.93,-0.04,-8.82,-10.2,854.1,40.056641,32.956204,-92.6,151316,1.3,49.3,-2.56,2.48,-0.96,12:58:27.913,1453.0,1484.4,47.0,51.8,47.7,49.3
0.0,2430.2,2.88,3.85,-10.35,-16.5,764.2,40.057772,32.957393,-87.4,152473,1.5,-0.1,5.53,-0.38,4.11,12:58:27.963,2401.5,2430.2,0,0.0,0.6,-0.1
24.7,302.0,1.83,1.37,-10.86,-3.4,982.6,40.059212,32.958833,-96.8,153919,1.7,20.7,0.29,-3.04,6.02,12:58:28.029,258.7,302.0,13.3,24.7,15.8,20.7
0.0,1902.9,0.25,2.82,-9.32,-13.1,812.8,40.06032,32.959941,-99.0,155048,1.4,0.2,1.58,3.05,-0.73,12:58:28.079,1868.5,1902.9,0,0.0,1.3,0.2
1.8,1851.1,2.39,1.35,-9.2,-11.7,817.7,40.061589,32.961196,-88.2,156309,0.2,2.1,0.07,3.87,-5.2,12:58:28.129,1816.2,1851.1,4.8,1.8,3.2,2.1
16.1,566.7,1.1,-3.67,-8.93,-4.5,950.7,40.062936,32.96257,-104.3,157670,0.5,14.3,-4.03,-2.07,-5.79,12:58:28.179,533.4,566.7,10.8,16.1,11.7,14.3
0.0,1898.4,1.96,1.17,-9.2,-12.6,813.6,40.064124,32.963729,-97.9,158818,1.3,0.1,-1.28,1.24,-3.76,12:58:28.229,1861.4,1898.4,0,0.0,1.4,0.1
132.9,2762.8,-0.01,1.72,-10.63,-18.6,731.3,40.065178,32.964779,-87.7,159875,2.0,133.4,-10.07,-0.8,6.81,12:58:28.280,2771.4,2762.8,133.4,132.9,133.8,133.4
1.2,5.3,3.52,-0.59,-11.05,-1.3,1013.2,40.066754,32.96642,-102.4,161484,0.8,2.2,0.63,-1.48,5.77,12:58:28.330,0,5.3,5.0,1.2,5.3,2.2
10.2,871.6,-0.92,-0.85,-10.93,-5.9,918.8,40.067974,32.967571,-93.0,162674,1.8,10.5,-7.34,4.56,1.67,12:58:28.380,831.9,871.6,9.3,10.2,10.4,10.5
62.1,1684.7,-0.22,-0.11,-9.01,-11.2,833.2,40.069183,32.968742,-87.0,163865,2.0,59.5,3.95,8.27,2.49,12:58:28.446,1661.5,1684.7,56.6,62.1,57.7,59.5
0.0,1518.6,4.47,1.35,-9.24,-10.3,852.8,40.070426,32.970041,-94.4,165135,0.7,0.3,1.71,0.24,-2.93,12:58:28.496,1470.8,1518.6,0,0.0,0.5,0.3
118.8,1870.3,-3.42,0.22,-8.27,-12.5,816.4,40.07166,32.97124,-97.8,166361,1.3,116.0,-4.36,4.92,-3.62,12:58:28.547,1839.2,1870.3,111.1,118.8,112.0,116.0
168.6,0.0,2.91,-1.14,-11.16,-1.2,1012.6,40.073312,32.97293,-102.3,168018,1.7,169.4,-4.91,-5.39,-11.72,12:58:28.612,0,0.0,173.3,168.6,173.0,169.4
10.5,910.9,1.51,1.36,-8.86,-7.2,915.3,40.074249,32.97387,-97.4,168954,1.2,10.2,-1.59,-0.36,-8.37,12:58:28.662,866.8,910.9,8.4,10.5,8.7,10.2
57.4,1599.7,-1.23,-0.97,-11.0,-10.9,841.4,40.075434,32.975077,-100.4,170155,0.6,54.6,6.76,1.49,-4.45,12:58:28.716,1571.7,1599.7,51.9,57.4,52.5,54.6
0.0,2782.3,1.18,1.38,-10.54,-18.1,730.6,40.076529,32.976155,-94.7,171243,0.3,-0.1,5.69,-6.18,-7.96,12:58:28.767,2782.8,2782.3,0,0.0,-1.0,-0.1
134.4,2769.8,0.01,-2.5,-7.57,-18.0,730.0,40.077681,32.977339,-104.9,172445,1.7,135.3,5.91,1.11,-1.56,12:58:28.816,2784.5,2769.8,136.3,134.4,136.5,135.3
0.0,2289.9,0.54,-1.04,-6.7,-14.8,776.7,40.079148,32.978736,-89.6,173855,1.9,0.3,-2.12,-7.86,10.4,12:58:28.878,2262.6,2289.9,0,0.0,-0.1,0.3
0.0,2349.7,-1.14,-2.49,-8.01,-15.2,769.9,40.080402,32.979994,-99.3,175105,0.6,-0.7,2.54,-5.5,9.15,12:58:28.913,2329.8,2349.7,0,0.0,-0.7,-0.7
150.3,2783.8,-0.81,1.68,-8.68,-18.1,729.6,40.081518,32.981126,-94.1,176221,1.6,149.4,-5.29,5.4,-3.56,12:58:28.979,2798.0,2783.8,151.6,150.3,151.9,149.4
0.0,1704.7,-0.09,1.52,-8.51,-11.8,825.8,40.082644,32.982177,-93.9,177319,0.8,0.0,6.26,3.68,-1.85,12:58:29.029,1746.2,1704.7,0,0.0,-0.7,0.0
36.0,1251.4,5.43,-1.62,-12.94,-9.4,869.6,40.083818,32.983445,-90.8,178538,0.4,37.8,-2.07,-11.86,-2.48,12:58:29.080,1293.4,1251.4,38.3,36.0,37.3,37.8
7.6,1645.4,-2.57,-0.43,-9.47,-12.0,829.6,40.085119,32.984764,-86.2,179827,0.6,7.6,-1.3,-5.73,0.59,12:58:29.130,1701.9,1645.4,5.7,7.6,6.4,7.6
0.3,344.8,-6.07,0.29,-11.08,-3.8,967.6,40.086313,32.985879,-95.6,180983,0.1,0.6,2.78,7.0,3.08,12:58:29.180,390.9,344.8,0,0.3,0.1,0.6
0.0,0.0,1.43,-1.41,-9.36,-1.6,1013.0,40.087406,32.987017,-86.5,182130,0.2,-0.2,-7.87,3.22,1.43,12:58:29.230,0,0.0,0,0.0,0.5,-0.2
0.0,2728.1,-2.26,-1.48,-7.72,-18.4,735.3,40.089114,32.988743,-85.0,183832,1.3,0.4,-8.78,3.93,-12.44,12:58:29.296,2728.6,2728.1,0,0.0,0.4,0.4
130.3,2738.7,0.38,-0.66,-8.65,-18.1,733.4,40.09031,32.989895,-86.8,185001,1.4,131.6,4.95,-1.67,8.17,12:58:29.330,2744.9,2738.7,132.4,130.3,131.8,131.6
0.0,2608.2,-2.98,2.55,-9.77,-17.6,744.3,40.091518,32.991129,-101.9,186224,0.8,-0.1,5.86,-1.29,6.78,12:58:29.395,2624.4,2608.2,0,0.0,0.2,-0.1
0.0,2736.1,5.87,0.51,-9.32,-18.1,732.7,40.092799,32.99242,-101.0,187513,1.1,-0.0,9.18,1.03,-10.34,12:58:29.446,2746.1,2736.1,0,0.0,-0.3,-0.0
112.0,1876.2,-2.28,5.47,-7.73,-12.4,811.2,40.09395,32.993558,-90.8,188645,0.3,113.9,6.0,8.56,1.99,12:58:29.496,1902.5,1876.2,116.5,112.0,115.4,113.9
0.0,1782.1,-0.92,0.16,-8.03,-12.3,819.2,40.095195,32.994792,-103.2,189893,0.8,0.1,2.24,-1.32,-6.05,12:58:29.546,1810.2,1782.1,0,0.0,0.4,0.1
115.2,1796.8,-2.98,0.21,-11.1,-12.5,823.8,40.096794,32.996389,-96.0,191500,0.5,112.2,1.18,4.45,1.71,12:58:29.597,1755.0,1796.8,108.7,115.2,108.5,112.2
0.0,1930.9,0.36,-2.55,-9.83,-13.0,810.4,40.098031,32.997625,-100.5,192744,0.4,0.5,-2.74,-7.77,-14.37,12:58:29.662,1894.2,1930.9,0,0.0,-0.6,0.5
8.9,608.4,-1.31,0.11,-10.55,-5.0,946.1,40.099404,32.999017,-91.1,194108,0.9,7.5,-2.77,1.2,0.14,12:58:29.697,582.6,608.4,2.8,8.9,2.0,7.5
133.8,2276.3,4.63,2.06,-10.52,-15.2,773.5,40.100283,32.999885,-89.7,194970,0.8,135.6,4.44,-3.24,1.95,12:58:29.763,2303.2,2276.3,136.4,133.8,136.1,135.6
53.6,0.0,3.74,3.95,-10.05,-1.9,1013.6,40.10127,33.000854,-91.0,195955,0.2,51.7,7.67,-7.69,-2.09,12:58:29.813,0,0.0,52.3,53.6,50.9,51.7
77.5,0.0,0.83,1.0,-11.46,-1.9,1013.4,40.102196,33.001785,-103.9,196894,0.3,76.6,-3.54,-2.45,2.99,12:58:29.864,0,0.0,77.5,77.5,76.6,76.6
118.6,1886.5,0.17,1.67,-7.74,-12.9,814.5,40.103099,33.002695,-86.5,197775,0.6,115.6,0.92,-2.8,8.96,12:58:29.913,1858.7,1886.5,111.1,118.6,111.5,115.6
0.0,2799.1,-0.84,-2.89,-8.93,-18.0,729.4,40.104167,33.003748,-88.3,198864,0.1,0.3,-3.28,5.26,2.67,12:58:29.964,2802.0,2799.1,0,0.0,2.2,0.3
0.0,2109.0,3.22,-1.8,-8.72,-13.7,793.6,40.105565,33.00518,-89.0,200265,1.3,-0.3,-3.0,0.07,-2.68,12:58:30.013,2077.5,2109.0,0,0.0,-0.5,-0.3
139.1,2770.8,-3.81,-4.87,-9.73,-17.6,732.0,40.106719,33.006284,-92.2,201407,1.8,137.0,-0.32,13.54,-0.79,12:58:30.079,2769.4,2770.8,137.4,139.1,138.0,137.0
0.0,2623.8,-3.77,-2.67,-9.72,-16.8,743.5,40.107859,33.007455,-102.0,202562,1.3,-0.0,-1.56,-10.27,3.28,12:58:30.129,2632.9,2623.8,0,0.0,0.1,-0.0
34.5,1230.1,0.67,1.09,-9.76,-9.4,874.2,40.108956,33.00858,-92.4,203668,1.2,36.3,-0.82,0.26,-0.58,12:58:30.180,1258.1,1230.1,32.7,34.5,33.1,36.3
0.0,0.0,4.29,-1.33,-8.17,-1.5,1012.9,40.110087,33.009663,-104.2,204781,1.6,-0.2,-6.25,-2.46,-7.71,12:58:30.230,0,0.0,0,0.0,-0.6,-0.2
177.7,0.0,-1.64,3.6,-8.84,-1.6,1013.0,40.111083,33.01063,-87.5,205751,1.4,177.5,-1.11,8.0,0.1,12:58:30.281,0,0.0,181.1,177.7,179.6,177.5
0.0,0.0,1.22,1.46,-9.83,-1.5,1013.1,40.112153,33.011801,-88.0,206869,0.8,0.2,5.22,6.3,-1.67,12:58:30.332,0,0.0,0,0.0,-0.2,0.2
49.8,0.0,-3.97,1.19,-7.61,-1.6,1012.7,40.113564,33.013169,-87.1,208279,1.7,50.9,11.0,-1.91,-1.76,12:58:30.395,0,0.0,50.9,49.8,50.0,50.9
77.0,0.0,-0.59,1.2,-8.5,-1.8,1013.6,40.114719,33.014317,-90.6,209419,1.6,76.6,2.14,2.31,4.66,12:58:30.446,0,0.0,79.8,77.0,78.7,76.6
7.7,35.0,0.5,-1.32,-11.55,-1.9,1013.3,40.115776,33.01536,-88.2,210486,1.2,4.1,0.92,0.69,-16.32,12:58:30.496,0,35.0,1.7,7.7,2.0,4.1
0.0,2786.6,-1.4,0.9,-9.02,-18.3,729.1,40.116749,33.01633,-85.4,211450,0.3,-0.0,1.68,3.93,-0.05,12:58:30.546,2788.2,2786.6,0,0.0,0.6,-0.0
0.0,1898.7,3.97,2.61,-9.03,-13.1,807.9,40.117775,33.017393,-99.5,212522,1.2,-0.0,0.43,3.68,3.56,12:58:30.597,1921.8,1898.7,0,0.0,-0.3,-0.0
149.5,2669.2,5.03,-2.42,-8.73,-17.4,739.7,40.119169,33.018783,-94.2,213882,1.8,149.3,-6.78,-3.01,-1.22,12:58:30.662,2672.6,2669.2,149.2,149.5,147.6,149.3
0.1,462.4,-0.61,0.92,-11.55,-3.8,956.7,40.120236,33.019792,-85.5,214920,0.9,-0.0,4.73,-0.73,5.03,12:58:30.713,488.4,462.4,0,0.1,-0.6,-0.0
0.0,0.0,4.04,-1.96,-9.34,-1.5,1013.4,40.121381,33.02102,-85.5,216110,0.7,0.0,-0.08,8.26,3.45,12:58:30.763,0,0.0,0,0.0,-0.2,0.0
0.0,0.0,-2.88,-1.6,-8.33,-1.5,1013.5,40.122577,33.022191,-85.8,217286,1.4,0.3,7.51,3.71,2.0,12:58:30.813,0,0.0,0,0.0,0.8,0.3
124.7,0.0,-2.79,1.58,-12.09,-1.3,1013.3,40.123775,33.023377,-98.5,218499,0.9,120.7,-0.03,-9.72,5.02,12:58:30.863,0,0.0,118.5,124.7,118.2,120.7
7.1,162.5,-2.73,-1.13,-10.76,-2.9,990.1,40.125241,33.024819,-102.1,219925,1.6,9.5,-3.52,14.91,-0.29,12:58:30.913,191.9,162.5,12.7,7.1,11.7,9.5
66.3,0.0,1.59,-0.35,-11.34,-1.6,1013.6,40.126363,33.025965,-95.8,221050,0.8,64.9,-5.4,1.1,-0.1,12:58:30.979,0,0.0,61.3,66.3,61.0,64.9
57.3,0.0,-3.07,3.81,-9.75,-1.4,1013.7,40.127403,33.027012,-92.8,222110,0.1,55.5,4.51,-7.02,10.96,12:58:31.030,0,0.0,52.2,57.3,52.1,55.5
0.0,0.0,0.36,-0.43,-9.59,-1.6,1013.8,40.128487,33.028103,-89.2,223220,1.4,-0.1,-9.91,-6.08,-1.07,12:58:31.079,0,0.0,0,0.0,0.4,-0.1
168.0,0.0,3.79,0.8,-10.55,-2.0,1012.8,40.129864,33.029425,-94.4,224564,0.5,168.4,-6.3,5.98,-3.35,12:58:31.129,0,0.0,172.0,168.0,169.8,168.4
0.0,0.0,-1.58,-2.4,-11.6,-1.4,1013.0,40.130906,33.030507,-101.8,225625,0.4,0.7,-2.54,-6.02,-0.32,12:58:31.180,0,0.0,0,0.0,1.9,0.7
0.0,0.0,1.97,-2.7,-10.68,-1.3,1013.1,40.132115,33.031766,-99.0,226860,1.2,-0.4,-8.16,-4.46,1.37,12:58:31.230,0,0.0,0,0.0,-1.2,-0.4
67.7,0.0,-2.05,-1.26,-9.78,-1.3,1013.2,40.133617,33.033224,-100.1,228359,1.3,65.4,1.61,9.3,-3.23,12:58:31.296,0,0.0,64.1,67.7,63.0,65.4
0.0,0.0,-1.92,1.94,-11.03,-1.6,1013.4,40.134874,33.034427,-85.7,229544,1.6,-0.1,-7.0,-1.0,-5.27,12:58:31.345,0,0.0,0,0.0,-1.7,-0.1
16.0,0.0,4.21,2.6,-10.39,-1.6,1012.4,40.135945,33.035549,-104.5,230621,1.9,18.7,-4.97,5.37,4.09,12:58:31.396,0,0.0,20.3,16.0,19.4,18.7
0.6,0.1,-1.36,1.21,-9.95,-1.5,1013.0,40.137202,33.036772,-98.3,231866,0.7,0.0,3.62,-7.87,5.05,12:58:31.446,0,0.1,0,0.6,0.1,0.0
4.5,0.0,-1.92,-2.98,-10.89,-1.4,1014.3,40.138612,33.038178,-92.2,233284,0.3,4.6,0.28,-11.39,2.78,12:58:31.512,0,0.0,2.4,4.5,1.8,4.6
59.8,0.0,1.93,0.64,-8.25,-1.3,1013.5,40.139794,33.03937,-90.9,234476,1.3,61.0,-1.51,-4.43,6.7,12:58:31.562,0,0.0,62.1,59.8,61.4,61.0
0.0,0.0,3.06,-3.01,-9.2,-1.2,1013.2,40.141022,33.040596,-87.2,235735,1.7,-0.0,5.39,5.36,1.62,12:58:31.613,0,0.0,0,0.0,-0.2,-0.0
64.4,0.0,-2.9,-3.5,-8.93,-1.4,1012.6,40.142287,33.041874,-96.2,236965,1.7,68.0,1.97,3.36,-1.84,12:58:31.663,0,0.0,71.3,64.4,72.1,68.0
1.0,1.4,-2.82,-0.52,-9.45,-2.4,1013.5,40.143468,33.043074,-99.3,238142,0.3,0.9,2.74,-7.13,5.66,12:58:31.713,0,1.4,0,1.0,2.0,0.9
0.5,0.3,-5.17,-1.05,-11.06,-1.7,1013.0,40.144694,33.044324,-104.0,239404,0.1,0.2,-1.06,3.19,4.55,12:58:31.763,0,0.3,0,0.5,1.1,0.2
15.6,0.0,-0.04,2.66,-10.8,-1.3,1013.5,40.14638,33.04597,-94.8,241071,1.1,13.5,3.1,6.94,0.16,12:58:31.829,0,0.0,12.4,15.6,14.0,13.5
0.0,0.0,-5.59,2.43,-9.76,-1.4,1013.1,40.147535,33.047153,-89.9,242240,1.8,0.0,8.72,-11.31,4.45,12:58:31.878,0,0.0,0,0.0,-0.8,0.0
156.5,0.0,-1.73,-1.45,-8.14,-2.1,1014.0,40.148682,33.048263,-90.4,243385,1.9,158.6,-6.26,1.93,0.38,12:58:31.929,0,0.0,163.0,156.5,163.4,158.6
1.1,2.3,0.05,-4.24,-10.05,-1.5,1013.8,40.14972,33.049348,-104.2,244424,1.1,1.0,4.12,4.29,-1.56,12:58:31.979,0,2.3,0,1.1,1.5,1.0
46.0,1386.5,-3.9,4.23,-9.39,-10.1,864.6,40.150879,33.050489,-98.8,245571,0.4,42.8,2.35,4.29,-1.05,12:58:32.030,1355.7,1386.5,40.6,46.0,39.6,42.8
0.0,1371.0,2.27,0.61,-10.38,-9.3,866.5,40.152117,33.051712,-88.1,246828,1.3,0.4,1.77,-2.18,-0.47,12:58:32.080,1331.1,1371.0,0,0.0,1.0,0.4
0.0,0.0,-2.37,-0.09,-9.78,-1.7,1013.0,40.153742,33.053352,-99.9,248452,1.3,0.3,-1.25,-5.63,5.96,12:58:32.130,0,0.0,0,0.0,-0.2,0.3
118.6,0.0,0.1,-1.17,-9.92,-1.8,1012.7,40.154936,33.054529,-103.3,249603,0.0,121.5,-11.31,-7.63,0.61,12:58:32.196,0,0.0,126.6,118.6,126.4,121.5
0.0,0.0,0.95,-0.05,-9.31,-1.8,1013.8,40.156259,33.055837,-96.1,250918,0.4,-0.5,1.77,-8.96,-4.02,12:58:32.246,0,0.0,0,0.0,-1.7,-0.5
1.7,0.0,0.09,0.76,-10.68,-1.6,1013.3,40.157407,33.057005,-97.0,252123,1.9,1.9,1.04,5.81,5.02,12:58:32.296,0,0.0,3.0,1.7,3.0,1.9
1.8,2.4,-4.94,2.23,-10.14,-1.5,1012.3,40.158546,33.058101,-85.9,253220,1.7,2.3,3.17,1.93,-5.77,12:58:32.346,0,2.4,2.2,1.8,3.3,2.3
147.3,2542.8,0.31,1.08,-7.36,-16.2,752.1,40.15954,33.059156,-92.6,254243,0.1,146.6,-4.77,8.33,-1.73,12:58:32.396,2540.4,2542.8,145.3,147.3,144.8,146.6
0.0,2495.8,-0.98,-1.29,-12.2,-16.8,756.8,40.160774,33.060381,-86.6,255508,0.8,0.3,-3.53,-1.14,5.22,12:58:32.446,2480.4,2495.8,0,0.0,-1.0,0.3
0.0,0.0,-2.88,3.62,-10.16,-1.7,1013.2,40.162382,33.061973,-98.9,257071,0.8,-0.4,-14.24,1.5,5.72,12:58:32.512,0,0.0,0,0.0,-0.8,-0.4
0.0,0.0,-2.75,-3.33,-9.04,-1.1,1012.9,40.163611,33.063155,-97.7,258290,1.7,0.5,4.04,5.43,1.61,12:58:32.562,0,0.0,0,0.0,-0.0,0.5
0.0,1093.2,0.22,0.86,-9.87,-7.9,894.1,40.1647,33.064328,-103.3,259417,1.1,0.4,-3.88,-0.44,-3.45,12:58:32.612,1056.3,1093.2,0,0.0,0.7,0.4
87.9,1317.6,1.61,0.52,-10.29,-8.6,872.5,40.165961,33.065514,-90.0,260656,0.7,84.3,-3.07,0.61,3.36,12:58:32.664,1277.2,1317.6,84.7,87.9,84.2,84.3
0.0,2804.6,0.3,1.78,-10.94,-18.5,729.0,40.166984,33.066596,-91.8,261698,1.3,-0.1,2.68,2.06,4.96,12:58:32.713,2793.7,2804.6,0,0.0,-0.3,-0.1
0.0,2693.0,1.87,0.46,-12.71,-17.4,737.9,40.168214,33.06781,-88.8,262897,1.9,0.5,1.56,-0.28,-2.05,12:58:32.768,2701.7,2693.0,0,0.0,-0.4,0.5
116.6,1950.2,1.41,1.72,-8.42,-13.4,803.0,40.169358,33.068952,-93.8,264050,1.9,118.7,-5.19,9.15,5.46,12:58:32.829,1973.4,1950.2,123.0,116.6,121.7,118.7
35.1,0.0,-4.21,-5.52,-8.58,-1.7,1012.9,40.170426,33.069992,-89.5,265105,0.3,32.0,-1.2,-0.09,-2.79,12:58:32.880,0,0.0,29.0,35.1,28.9,32.0
0.4,0.0,0.0,1.55,-10.03,-1.3,1013.2,40.171527,33.071126,-92.1,266268,0.5,0.6,1.67,-1.11,7.43,12:58:32.930,0,0.0,0,0.4,1.7,0.6
0.0,0.0,1.3,-1.99,-10.17,-1.3,1013.2,40.172785,33.072377,-91.9,267486,0.7,0.3,7.15,-5.42,-8.06,12:58:32.980,0,0.0,0,0.0,1.3,0.3
0.0,652.1,0.41,3.42,-9.65,-5.6,934.8,40.174269,33.073877,-95.9,268969,1.7,0.3,-2.49,-1.46,-15.73,12:58:33.045,686.1,652.1,0,0.0,-0.0,0.3
0.0,0.0,0.15,3.4,-7.79,-1.3,1013.9,40.17542,33.074995,-93.7,270080,2.0,-0.3,-11.67,0.34,-2.27,12:58:33.096,0,0.0,0,0.0,-2.0,-0.3
50.2,0.0,4.6,-3.27,-11.23,-1.4,1012.9,40.17665,33.076234,-100.1,271359,2.0,47.3,-5.21,3.38,5.64,12:58:33.145,0,0.0,42.6,50.2,42.4,47.3
69.5,1953.5,0.84,-0.03,-9.88,-13.2,802.8,40.178152,33.077761,-92.7,272846,0.7,72.3,0.36,-3.83,-3.01,12:58:33.212,1985.1,1953.5,73.8,69.5,73.9,72.3
10.6,1299.2,-0.86,-1.2,-9.19,-9.7,866.1,40.179314,33.078955,-85.5,274045,0.9,10.7,-3.76,2.65,3.45,12:58:33.247,1336.1,1299.2,7.5,10.6,9.5,10.7
0.2,392.0,4.93,-1.8,-9.14,-4.0,964.0,40.180521,33.080129,-103.3,275233,0.5,0.4,6.64,5.76,-0.84,12:58:33.312,427.2,392.0,0,0.2,0.0,0.4
0.0,0.0,3.37,-0.97,-8.69,-1.7,1013.5,40.181637,33.081245,-98.4,276348,1.3,0.1,-2.93,4.55,3.59,12:58:33.363,0,0.0,0,0.0,1.3,0.1
72.8,0.0,-0.71,4.62,-8.63,-1.3,1012.6,40.182883,33.082483,-93.0,277579,0.8,70.4,11.17,-6.65,-1.37,12:58:33.413,0,0.0,70.1,72.8,68.8,70.4
113.6,2569.8,3.63,-1.16,-9.38,-16.9,746.2,40.184474,33.084117,-96.7,279208,1.8,114.6,0.17,-8.04,0.42,12:58:33.479,2596.8,2569.8,115.5,113.6,114.2,114.6
0.0,2531.3,-0.48,0.73,-10.71,-16.7,750.6,40.185752,33.085344,-92.8,280458,0.8,-0.1,2.67,-5.14,-1.59,12:58:33.529,2548.0,2531.3,0,0.0,1.3,-0.1
0.0,2755.0,-0.82,-0.07,-8.14,-17.8,733.9,40.187074,33.086685,-93.1,281765,0.9,0.1,0.31,3.61,5.24,12:58:33.579,2752.9,2755.0,0,0.0,-0.4,0.1
148.3,2606.3,-0.53,1.4,-10.16,-17.5,743.6,40.188315,33.087867,-103.8,282984,2.0,148.4,0.31,-0.81,5.75,12:58:33.629,2629.0,2606.3,148.0,148.3,148.2,148.4
0.0,2736.5,1.81,3.47,-10.92,-17.6,735.4,40.189666,33.089297,-104.0,284359,0.4,0.3,4.11,-8.31,-1.63,12:58:33.695,2728.2,2736.5,0,0.0,1.1,0.3
144.1,2798.4,1.57,-0.82,-10.47,-17.8,729.0,40.190857,33.090475,-103.8,285572,1.7,144.6,6.06,-1.7,3.95,12:58:33.746,2792.9,2798.4,146.7,144.1,146.4,144.6
0.0,2794.5,-1.31,-0.02,-9.48,-18.4,730.4,40.192119,33.091757,-87.3,286826,0.3,0.4,5.05,2.52,4.34,12:58:33.797,2789.6,2794.5,0,0.0,1.9,0.4
0.1,0.0,-4.18,2.35,-10.76,-1.3,1013.0,40.193729,33.093316,-100.4,288427,1.9,-0.2,4.54,1.36,6.05,12:58:33.862,0,0.0,0,0.1,-0.5,-0.2
14.2,501.0,6.06,-3.05,-8.98,-3.6,960.1,40.194924,33.094515,-103.1,289621,1.0,12.3,6.15,6.98,-11.71,12:58:33.913,458.2,501.0,11.2,14.2,11.6,12.3
0.0,2512.0,5.67,-1.25,-11.27,-16.7,756.1,40.195971,33.095594,-88.6,290690,0.3,0.2,0.32,1.09,-7.51,12:58:33.963,2481.3,2512.0,0,0.0,2.0,0.2
139.9,2784.5,-0.56,2.39,-9.74,-18.4,730.4,40.197143,33.096741,-85.0,291838,0.2,141.6,-6.22,-0.94,5.26,12:58:34.013,2782.0,2784.5,144.5,139.9,143.8,141.6
1.1,2024.8,-2.82,-5.09,-14.81,-14.4,796.1,40.198286,33.097847,-94.5,292960,1.8,0.3,3.31,-3.42,-2.65,12:58:34.063,2054.5,2024.8,0,1.1,-1.3,0.3
12.5,0.0,4.39,0.15,-9.87,-1.3,1012.9,40.199345,33.098959,-104.7,294044,2.0,9.7,-0.46,0.05,3.25,12:58:34.113,0,0.0,7.4,12.5,8.2,9.7
13.3,288.3,-2.68,-4.12,-9.49,-3.4,974.8,40.200652,33.100243,-102.9,295332,0.1,16.4,0.03,-6.5,-6.13,12:58:34.165,318.4,288.3,17.6,13.3,18.5,16.4
63.6,0.0,0.35,-1.28,-8.29,-1.6,1014.1,40.201789,33.101359,-89.3,296458,0.7,61.4,-2.57,-7.47,0.49,12:58:34.216,0,0.0,59.5,63.6,59.2,61.4
87.5,2224.4,-0.92,-1.96,-10.35,-15.2,779.5,40.203295,33.102934,-88.6,298009,0.3,89.5,-2.32,-2.15,7.09,12:58:34.263,2235.3,2224.4,93.9,87.5,92.6,89.5
8.3,1622.4,-7.26,2.11,-8.83,-11.5,834.4,40.204461,33.104113,-96.1,299205,0.1,8.2,-3.84,-4.2,2.35,12:58:34.320,1647.3,1622.4,10.0,8.3,11.4,8.2
28.6,0.0,1.44,-1.39,-6.91,-2.2,1013.6,40.205639,33.105242,-90.3,300307,1.2,24.7,1.06,-1.17,2.12,12:58:34.379,0,0.0,22.0,28.6,19.2,24.7
0.0,0.0,-1.06,6.84,-8.11,-1.5,1013.3,40.20685,33.106439,-89.4,301518,1.1,-0.4,-6.08,8.25,3.91,12:58:34.429,0,0.0,0,0.0,-0.5,-0.4
61.1,0.0,-0.26,-0.67,-7.75,-1.5,1013.0,40.207875,33.107497,-95.7,302559,1.1,62.4,-9.35,-1.79,-10.02,12:58:34.481,0,0.0,66.8,61.1,67.0,62.4
0.0,0.0,-1.78,2.45,-10.81,-1.6,1013.6,40.209394,33.108985,-102.8,304082,0.9,0.0,1.77,-2.22,0.04,12:58:34.530,0,0.0,0,0.0,-0.9,0.0
0.0,0.0,-2.46,-1.91,-9.74,-1.3,1013.0,40.210507,33.110141,-100.7,305237,1.1,0.3,4.75,-1.95,2.09,12:58:34.596,0,0.0,0,0.0,1.7,0.3
178.4,0.0,0.07,-2.93,-11.43,-1.5,1013.0,40.211633,33.111253,-101.6,306337,0.8,176.7,6.26,3.15,-1.85,12:58:34.647,0,0.0,176.2,178.4,174.3,176.7
0.0,0.0,-1.44,0.63,-9.06,-1.6,1013.3,40.213102,33.11272,-90.6,307823,1.8,0.5,-6.57,3.95,-1.57,12:58:34.712,0,0.0,0,0.0,0.5,0.5
76.2,0.0,2.36,-0.89,-9.8,-1.9,1012.5,40.214269,33.113861,-98.4,308976,1.9,75.3,1.94,-6.67,-3.31,12:58:34.762,0,0.0,75.3,76.2,73.3,75.3
42.3,0.0,2.46,2.35,-10.28,-1.4,1013.3,40.215409,33.115034,-92.2,310120,1.9,41.1,-2.86,-0.28,-3.53,12:58:34.810,0,0.0,42.6,42.3,43.6,41.1
0.0,0.0,-2.11,2.18,-9.05,-1.7,1013.2,40.216548,33.116126,-85.9,311248,1.9,-0.3,-4.46,0.5,1.7,12:58:34.862,0,0.0,0,0.0,0.0,-0.3
30.3,0.0,-3.97,1.93,-11.1,-1.5,1013.2,40.217625,33.117181,-98.8,312321,0.7,33.9,4.26,-5.94,0.06,12:58:34.912,0,0.0,35.3,30.3,35.4,33.9
10.9,881.8,1.26,-1.08,-10.06,-6.6,918.1,40.218761,33.118368,-97.0,313469,0.7,10.3,-10.22,-5.16,1.25,12:58:34.962,838.7,881.8,8.3,10.9,8.0,10.3
21.2,736.7,1.87,-2.85,-11.18,-5.8,934.4,40.220071,33.119608,-86.4,314736,0.1,19.1,2.88,3.83,9.83,12:58:35.012,684.7,736.7,20.0,21.2,20.5,19.1
0.0,2290.8,-1.16,1.72,-9.03,-15.6,774.7,40.221146,33.120766,-102.7,315855,0.1,0.1,-1.85,-1.18,-0.1,12:58:35.063,2278.0,2290.8,0,0.0,1.7,0.1
70.1,1032.0,2.12,1.7,-9.43,-7.5,901.5,40.222513,33.122135,-96.6,317227,1.1,67.1,2.58,0.15,-5.99,12:58:35.113,1001.5,1032.0,66.0,70.1,66.5,67.1
0.0,620.6,-3.9,1.74,-10.4,-5.0,945.7,40.223808,33.123435,-100.5,318514,1.6,0.1,-4.62,-1.71,3.74,12:58:35.164,584.5,620.6,0,0.0,0.6,0.1
0.0,2802.2,1.07,2.75,-10.9,-18.4,728.5,40.224823,33.124375,-86.2,319508,0.2,-0.2,3.19,-2.51,-7.62,12:58:35.223,2811.0,2802.2,0,0.0,-1.2,-0.2
150.0,2764.5,3.28,-3.38,-10.48,-17.9,731.8,40.226071,33.125646,-99.3,320729,1.1,149.7,-2.83,7.14,-11.96,12:58:35.280,2767.3,2764.5,150.7,150.0,152.4,149.7
28.8,0.0,-1.96,5.69,-8.28,-1.4,1013.2,40.226939,33.126561,-85.1,321665,0.8,26.2,-2.3,3.65,-0.92,12:58:35.329,0,0.0,22.2,28.8,21.8,26.2
88.5,2249.7,1.26,-1.26,-9.92,-15.0,775.1,40.228456,33.128051,-88.4,323144,1.1,91.0,-8.71,5.2,6.79,12:58:35.396,2276.5,2249.7,96.9,88.5,97.1,91.0
0.4,16.8,1.57,2.87,-10.32,-1.5,1009.6,40.229541,33.1291,-102.1,324214,1.0,0.4,9.3,-13.89,3.77,12:58:35.446,35.7,16.8,0.5,0.4,0.8,0.4
59.8,0.0,-1.73,-0.48,-8.57,-1.3,1012.5,40.23067,33.130301,-85.4,325399,0.7,55.7,-5.3,0.86,-6.8,12:58:35.496,0,0.0,50.6,59.8,49.1,55.7
0.0,0.0,-1.62,-0.27,-8.71,-1.2,1012.9,40.231876,33.131486,-92.5,326553,1.1,-0.5,1.12,5.46,4.77,12:58:35.547,0,0.0,0,0.0,-2.2,-0.5
0.0,801.3,5.78,-1.62,-10.11,-6.7,917.3,40.233321,33.132966,-94.1,328042,0.8,0.2,-8.75,3.16,3.49,12:58:35.612,837.1,801.3,0,0.0,-0.1,0.2
34.5,1200.0,-0.39,-0.14,-10.25,-8.9,876.0,40.234646,33.134234,-88.0,329329,1.8,37.3,2.66,-1.75,0.79,12:58:35.662,1233.0,1200.0,40.8,34.5,39.3,37.3
3.0,249.7,-2.18,4.06,-8.78,-3.2,979.3,40.235779,33.135449,-93.5,330515,1.4,3.0,-3.55,-4.13,8.62,12:58:35.712,283.6,249.7,1.2,3.0,-0.2,3.0
73.7,0.0,1.0,0.87,-11.09,-1.6,1013.5,40.236972,33.13655,-92.8,331666,0.8,70.5,0.56,2.86,-6.91,12:58:35.763,0,0.0,67.7,73.7,67.5,70.5
0.0,0.0,-0.33,1.53,-11.31,-1.8,1013.0,40.238195,33.137731,-95.8,332880,0.6,-0.8,-3.38,-4.57,1.62,12:58:35.813,0,0.0,0,0.0,-3.2,-0.8
56.3,0.0,2.31,-1.83,-6.54,-1.2,1013.4,40.239265,33.138882,-91.8,333960,1.4,57.9,2.89,-9.31,-2.59,12:58:35.863,0,0.0,60.7,56.3,59.9,57.9
77.0,0.0,2.86,1.31,-9.86,-1.7,1013.0,40.24037,33.140019,-104.4,335090,1.7,76.6,8.29,-0.95,1.41,12:58:35.914,0,0.0,78.1,77.0,77.6,76.6
0.0,0.0,1.45,-0.92,-10.88,-1.8,1012.7,40.241904,33.14151,-102.2,336606,0.4,-0.4,-5.44,-8.52,-0.75,12:58:35.978,0,0.0,0,0.0,-0.6,-0.4
0.0,1193.0,1.21,3.54,-9.06,-9.0,884.4,40.242636,33.142223,-90.7,337321,1.0,-0.4,-2.18,-0.53,-7.2,12:58:36.027,1163.5,1193.0,0,0.0,-1.6,-0.4
91.9,0.0,3.64,-0.22,-8.54,-1.2,1013.4,40.243259,33.142843,-100.1,337925,0.6,87.6,-9.37,4.46,-1.88,12:58:36.079,0,0.0,86.1,91.9,86.0,87.6
8.1,1488.0,-0.47,-3.17,-8.27,-10.4,853.0,40.243835,33.143473,-92.8,338553,1.3,8.6,5.07,4.35,-3.18,12:58:36.129,1460.3,1488.0,8.2,8.1,7.3,8.6
72.6,1228.3,-1.89,3.01,-9.99,-9.5,872.9,40.24468,33.1443,-86.1,339384,0.7,76.2,-1.08,-0.39,3.21,12:58:36.178,1268.6,1228.3,81.2,72.6,80.9,76.2
44.4,0.0,-0.71,-1.65,-7.02,-0.9,1013.5,40.245781,33.145396,-88.6,340486,0.2,42.4,-2.68,2.4,2.47,12:58:36.229,0,0.0,42.0,44.4,42.0,42.4
0.0,0.0,-1.45,-0.11,-9.05,-1.4,1013.7,40.247021,33.14657,-102.8,341690,0.9,-0.0,7.48,6.26,-4.24,12:58:36.281,0,0.0,0,0.0,0.7,-0.0
0.2,2209.9,0.42,3.44,-10.45,-15.1,779.2,40.2485,33.148146,-88.5,343246,0.2,0.0,6.0,-10.43,-2.42,12:58:36.330,2239.5,2209.9,0,0.2,-0.2,0.0
0.1,551.3,-1.95,0.66,-10.59,-5.0,943.7,40.24968,33.149281,-85.4,344360,0.2,-0.4,-0.96,-2.93,-0.16,12:58:36.396,599.8,551.3,0,0.1,-0.2,-0.4
45.3,792.1,-2.36,3.73,-12.3,-6.7,919.0,40.250939,33.150552,-90.0,345634,1.1,49.1,-3.01,6.29,1.77,12:58:36.446,838.2,792.1,57.1,45.3,57.4,49.1
60.5,0.0,2.2,2.49,-10.01,-1.0,1012.6,40.252003,33.151622,-96.1,346736,1.7,59.0,0.12,7.39,0.33,12:58:36.496,0,0.0,55.0,60.5,55.0,59.0
11.8,0.0,2.76,-3.46,-10.07,-1.7,1013.0,40.253196,33.152817,-91.5,347899,0.1,9.4,4.49,-0.07,5.34,12:58:36.545,0,0.0,7.9,11.8,7.9,9.4
9.7,1419.2,2.35,-0.51,-10.46,-10.5,854.3,40.25476,33.154362,-99.2,349453,1.3,9.2,3.85,3.93,-0.14,12:58:36.612,1444.4,1419.2,11.2,9.7,11.3,9.2
51.7,0.0,-4.28,-4.22,-10.49,-1.5,1012.0,40.255853,33.155421,-95.7,350543,1.2,48.7,2.59,6.68,-2.52,12:58:36.662,0,0.0,45.1,51.7,44.1,48.7
26.4,503.7,-0.5,2.78,-9.23,-5.1,951.3,40.257202,33.156838,-101.9,351896,1.1,29.2,6.97,-2.21,-9.31,12:58:36.712,537.8,503.7,31.1,26.4,31.9,29.2
52.4,0.0,1.96,1.73,-9.28,-1.6,1013.9,40.258367,33.157949,-100.7,353036,1.6,50.4,-3.13,-0.86,-2.63,12:58:36.762,0,0.0,47.6,52.4,47.2,50.4
1.3,83.0,1.39,0.8,-9.87,-2.2,999.4,40.259688,33.159276,-90.1,354379,1.5,2.4,-2.38,5.11,4.93,12:58:36.813,119.4,83.0,3.8,1.3,4.2,2.4
7.1,607.3,0.4,-0.8,-9.46,-5.6,938.2,40.260989,33.160578,-92.1,355674,1.3,7.7,-4.82,-4.01,-4.46,12:58:36.862,650.5,607.3,8.8,7.1,8.5,7.7
0.0,1960.8,0.48,-0.82,-8.52,-14.0,800.0,40.262347,33.161937,-100.4,357041,0.4,0.2,-6.37,6.11,2.36,12:58:36.913,2006.2,1960.8,0,0.0,0.1,0.2
143.7,2790.6,-2.93,1.96,-10.49,-18.6,728.8,40.26377,33.163341,-87.5,358471,1.0,141.4,-2.6,-8.53,4.96,12:58:36.963,2793.9,2790.6,140.8,143.7,139.6,141.4
12.7,0.0,-0.8,1.37,-9.16,-1.5,1012.3,40.264655,33.164293,-104.2,359387,1.5,9.5,-2.38,-2.98,-3.05,12:58:37.029,0,0.0,7.1,12.7,6.6,9.5
0.0,0.0,2.84,5.69,-8.34,-1.8,1012.9,40.26592,33.165496,-88.0,360616,1.9,0.2,3.24,-2.62,-5.71,12:58:37.080,0,0.0,0,0.0,-0.4,0.2
0.0,0.0,-4.68,-2.94,-11.51,-1.3,1013.7,40.267204,33.166805,-104.7,361877,1.2,-0.4,-7.25,-2.03,1.07,12:58:37.129,0,0.0,0,0.0,-1.8,-0.4
138.1,0.0,-0.65,1.98,-11.49,-1.2,1013.7,40.268283,33.167946,-92.1,362992,1.3,134.1,-1.22,0.7,-1.82,12:58:37.180,0,0.0,134.1,138.1,130.4,134.1
0.0,0.0,-4.41,-5.05,-9.03,-1.5,1012.5,40.269438,33.169061,-93.2,364155,1.8,0.0,2.07,2.67,4.25,12:58:37.229,0,0.0,0,0.0,-0.1,0.0
77.3,0.0,3.53,0.19,-9.03,-1.1,1014.1,40.270788,33.170417,-87.1,365497,0.5,77.1,-2.59,-2.19,-3.96,12:58:37.295,0,0.0,78.0,77.3,78.1,77.1
66.1,0.0,0.38,6.44,-9.35,-1.8,1013.4,40.271901,33.171485,-92.9,366599,1.6,64.4,0.92,0.67,5.58,12:58:37.345,0,0.0,62.4,66.1,61.8,64.4
0.0,0.0,0.36,-0.74,-9.39,-1.6,1013.2,40.272931,33.172535,-85.9,367631,0.4,0.4,-2.32,3.59,-1.34,12:58:37.393,0,0.0,0,0.0,-0.2,0.4
120.1,0.0,2.62,1.3,-9.8,-1.5,1013.2,40.274294,33.173888,-95.2,368986,1.8,122.6,1.69,10.06,6.04,12:58:37.446,0,0.0,124.5,120.1,123.4,122.6
0.0,0.0,-0.29,-3.23,-8.9,-1.5,1012.7,40.275468,33.175077,-94.9,370164,0.7,0.3,0.35,-4.64,-5.58,12:58:37.496,0,0.0,0,0.0,2.2,0.3
3.8,107.1,0.46,0.6,-9.09,-1.7,1005.8,40.276616,33.176231,-104.6,371330,1.9,3.0,-9.15,4.01,-4.19,12:58:37.546,59.6,107.1,0,3.8,1.3,3.0
0.0,2012.1,2.05,-2.06,-10.84,-13.4,802.5,40.277701,33.177345,-89.5,372434,0.8,0.3,0.26,0.69,0.86,12:58:37.596,1982.6,2012.1,0,0.0,1.9,0.3
150.5,2699.1,0.43,1.49,-9.97,-18.0,737.9,40.278876,33.178462,-85.3,373592,0.8,150.2,3.53,-0.2,6.03,12:58:37.646,2694.2,2699.1,148.2,150.5,150.3,150.2
0.0,2704.5,-1.84,0.04,-10.13,-17.4,737.9,40.280153,33.179725,-86.0,374846,1.9,0.4,-1.2,-1.4,2.36,12:58:37.697,2694.0,2704.5,0,0.0,2.2,0.4
0.0,2776.0,0.26,1.34,-10.57,-18.1,730.7,40.281391,33.180982,-90.8,376080,0.4,0.1,7.73,11.23,9.24,12:58:37.747,2775.2,2776.0,0,0.0,-0.8,0.1
75.1,1933.6,1.03,-2.16,-9.33,-13.1,809.3,40.282768,33.182324,-100.4,377469,0.3,72.6,2.98,6.52,-2.05,12:58:37.796,1907.1,1933.6,68.6,75.1,69.3,72.6
0.0,2487.1,-0.58,0.81,-8.53,-17.2,754.3,40.283764,33.183373,-103.5,378469,0.2,0.0,-0.13,2.98,-3.75,12:58:37.851,2509.3,2487.1,0,0.0,0.6,0.0
46.2,1490.6,-1.55,2.43,-9.69,-10.8,846.9,40.284888,33.184558,-85.6,379618,0.1,48.4,0.29,-4.07,8.56,12:58:37.912,1524.8,1490.6,52.2,46.2,50.9,48.4
0.1,0.0,-1.55,-1.9,-8.58,-1.4,1013.1,40.28607,33.185642,-86.9,380755,0.3,0.0,-5.04,4.79,-7.2,12:58:37.962,0,0.0,0,0.1,-0.2,0.0
49.7,0.0,1.14,-0.03,-9.48,-1.2,1013.6,40.287286,33.186856,-92.6,381961,0.2,46.0,-0.42,1.77,-8.05,12:58:38.013,0,0.0,46.0,49.7,46.3,46.0
0.0,0.0,0.87,0.5,-10.24,-1.7,1012.5,40.288468,33.188047,-102.4,383181,1.0,0.2,2.58,-9.24,-4.22,12:58:38.062,0,0.0,0,0.0,1.2,0.2
71.2,0.0,0.06,-1.52,-10.81,-1.9,1013.6,40.289685,33.189314,-98.6,384399,0.4,71.1,-7.91,-0.85,6.73,12:58:38.113,0,0.0,73.1,71.2,73.7,71.1
47.7,0.0,1.59,-3.85,-10.37,-1.9,1013.3,40.290841,33.190417,-96.6,385500,0.1,45.0,0.05,-10.15,-4.18,12:58:38.163,0,0.0,42.9,47.7,41.1,45.0
0.0,0.0,-2.19,5.65,-9.09,-1.7,1013.8,40.291782,33.191386,-103.4,386484,0.7,0.3,-0.47,5.86,8.23,12:58:38.212,0,0.0,0,0.0,-0.5,0.3
0.0,1157.3,-3.19,-1.18,-8.56,-8.1,888.3,40.292865,33.192506,-97.0,387589,1.3,-0.2,-3.46,8.36,-5.85,12:58:38.262,1117.1,1157.3,0,0.0,1.5,-0.2
0.0,2190.9,1.36,0.81,-9.73,-14.4,785.3,40.294067,33.193654,-94.3,388751,1.2,-0.1,-9.71,1.54,-1.01,12:58:38.319,2161.2,2190.9,0,0.0,-0.6,-0.1
31.2,975.9,-1.4,1.31,-9.69,-7.0,907.8,40.29542,33.195017,-99.5,390116,1.6,28.8,3.0,9.67,1.2,12:58:38.379,930.5,975.9,26.5,31.2,26.1,28.8
0.0,1335.3,5.74,2.09,-10.46,-9.0,870.4,40.296646,33.196245,-103.4,391345,0.5,0.1,-3.36,-1.22,-1.03,12:58:38.429,1297.2,1335.3,0,0.0,-1.2,0.1
90.3,1374.3,-2.59,-0.29,-9.59,-9.6,866.0,40.297918,33.197505,-95.3,392598,1.1,87.4,-0.35,1.39,-0.36,12:58:38.479,1338.1,1374.3,86.7,90.3,87.0,87.4
0.0,1298.2,-0.34,-2.49,-10.17,-9.2,873.8,40.299173,33.198814,-104.7,393861,1.6,-0.4,-5.18,-2.95,-3.64,12:58:38.529,1259.6,1298.2,0,0.0,-0.3,-0.4
0.0,2718.0,-1.34,1.79,-10.4,-17.7,736.8,40.300296,33.199825,-97.5,394946,0.4,0.4,-1.69,-1.24,-0.23,12:58:38.580,2712.2,2718.0,0,0.0,-0.2,0.4
41.3,1253.9,-0.93,1.46,-9.93,-8.9,879.5,40.301679,33.201257,-91.7,396378,1.5,38.0,6.9,-5.31,-0.31,12:58:38.645,1209.9,1253.9,34.6,41.3,33.5,38.0
0.0,2548.8,-1.17,-0.15,-10.33,-16.6,748.8,40.302612,33.20224,-85.1,397328,0.4,0.2,1.79,-3.59,-1.99,12:58:38.696,2564.0,2548.8,0,0.0,-0.7,0.2
124.4,2688.5,2.23,0.34,-8.25,-17.1,735.4,40.303918,33.203541,-88.8,398612,1.1,125.5,3.41,-11.9,-9.2,12:58:38.746,2721.7,2688.5,129.7,124.4,129.5,125.5
0.0,2050.2,-1.14,-1.59,-9.82,-13.8,798.8,40.305378,33.204975,-93.6,400076,1.3,-0.2,4.4,-1.12,5.75,12:58:38.812,2025.1,2050.2,0,0.0,-0.4,-0.2
0.0,2763.7,-2.87,1.63,-9.77,-18.5,733.4,40.306523,33.206122,-97.2,401215,1.5,-0.5,-4.37,3.0,9.75,12:58:38.861,2751.9,2763.7,0,0.0,-3.0,-0.5
137.6,2754.5,1.59,1.59,-9.97,-18.1,733.8,40.307792,33.207374,-94.9,402474,1.0,135.9,-6.18,-5.83,9.46,12:58:38.912,2750.4,2754.5,135.2,137.6,133.7,135.9
0.0,2277.0,2.74,2.44,-10.85,-15.3,776.6,40.309121,33.20871,-94.3,403821,0.7,-0.4,-2.9,-8.25,4.51,12:58:38.962,2255.6,2277.0,0,0.0,-0.2,-0.4
122.4,2654.0,-1.76,-2.51,-8.95,-17.8,740.8,40.310184,33.20977,-101.1,404889,1.8,124.3,6.68,-9.8,2.05,12:58:39.012,2669.9,2654.0,125.0,122.4,124.8,124.3
0.6,22.7,1.78,0.33,-10.47,-1.5,1013.0,40.311787,33.211443,-100.9,406523,0.4,0.8,-3.38,4.57,-2.89,12:58:39.078,0,22.7,1.8,0.6,1.5,0.8
10.0,699.4,2.38,-0.32,-8.75,-5.3,936.9,40.313043,33.212647,-95.6,407730,0.4,9.4,-2.89,-0.03,2.01,12:58:39.129,665.8,699.4,8.8,10.0,7.3,9.4
77.5,1981.8,-0.34,-2.48,-8.89,-13.4,804.5,40.314189,33.213761,-87.6,408880,0.6,74.6,1.97,2.11,1.71,12:58:39.179,1958.1,1981.8,72.8,77.5,72.2,74.6
0.0,1818.6,3.57,1.34,-10.79,-12.0,820.4,40.315438,33.215037,-102.9,410152,1.4,-0.1,3.03,1.08,8.24,12:58:39.228,1791.5,1818.6,0,0.0,-0.2,-0.1
35.0,475.1,2.49,0.61,-11.16,-4.0,963.7,40.316838,33.216444,-101.1,411516,1.0,31.1,-8.98,-4.6,-7.95,12:58:39.279,426.6,475.1,26.4,35.0,26.2,31.1
0.0,1959.3,1.1,2.3,-9.66,-12.7,805.8,40.317967,33.217586,-89.6,412652,1.4,0.1,-4.32,-1.08,1.95,12:58:39.330,1949.9,1959.3,0,0.0,-0.3,0.1
1.7,13.4,6.11,3.1,-9.55,-1.9,1013.3,40.31938,33.218951,-86.8,414064,2.0,0.8,-1.37,1.07,0.17,12:58:39.395,0,13.4,0,1.7,0.5,0.8
0.0,0.0,4.17,5.57,-10.78,-1.6,1013.5,40.320763,33.220316,-85.7,415441,1.6,-0.3,-0.32,7.17,-0.77,12:58:39.445,0,0.0,0,0.0,0.0,-0.3
0.0,1058.8,0.94,-0.27,-12.99,-7.8,900.1,40.321789,33.221422,-100.2,416499,0.4,0.3,1.12,3.5,-2.67,12:58:39.496,1005.5,1058.8,0,0.0,0.6,0.3
52.0,739.8,-3.26,-0.22,-9.02,-5.7,933.8,40.323099,33.222652,-102.2,417780,0.3,48.0,-0.54,0.66,3.3,12:58:39.546,695.5,739.8,45.3,52.0,43.6,48.0
161.6,0.0,0.18,1.78,-9.15,-1.3,1013.0,40.324608,33.224194,-99.5,419326,1.7,162.9,-4.03,7.09,-1.48,12:58:39.596,0,0.0,166.8,161.6,165.7,162.9
0.0,0.0,2.26,4.37,-8.21,-1.7,1013.8,40.325849,33.225428,-93.4,420552,0.5,0.3,-8.35,1.27,-4.65,12:58:39.662,0,0.0,0,0.0,1.2,0.3
11.2,0.0,5.59,-1.07,-8.48,-1.3,1012.9,40.327082,33.226661,-89.4,421806,0.6,11.9,-8.54,-3.67,7.74,12:58:39.712,0,0.0,14.1,11.2,12.1,11.9
66.0,0.0,0.26,1.77,-10.44,-1.6,1013.7,40.328255,33.227886,-89.8,422989,1.7,66.9,-1.61,0.88,3.75,12:58:39.762,0,0.0,67.7,66.0,67.6,66.9
6.1,20.2,-4.36,-2.87,-8.08,-1.6,1013.4,40.329421,33.228977,-86.7,424116,0.7,2.6,6.03,-5.61,-0.06,12:58:39.813,0,20.2,0,6.1,0.6,2.6
63.0,0.0,0.58,-0.35,-10.26,-1.5,1013.7,40.330727,33.230365,-103.3,425460,0.2,65.3,0.16,1.86,-1.16,12:58:39.864,0,0.0,68.1,63.0,67.7,65.3
0.0,0.0,2.93,1.1,-8.75,-1.4,1013.1,40.332423,33.232018,-103.0,427113,1.8,0.1,-0.75,15.49,3.11,12:58:39.913,0,0.0,0,0.0,-0.4,0.1
51.0,0.0,-0.67,2.28,-9.2,-1.3,1013.0,40.333475,33.233098,-86.0,428194,1.5,52.6,-6.62,11.02,10.89,12:58:39.979,0,0.0,53.9,51.0,52.4,52.6
68.4,0.0,-2.51,1.52,-10.77,-1.3,1012.9,40.334743,33.234335,-94.6,429420,1.1,66.9,-1.06,-1.13,-1.73,12:58:40.030,0,0.0,67.4,68.4,66.6,66.9
0.0,0.0,1.42,-2.5,-9.84,-1.4,1012.6,40.335862,33.23542,-102.9,430516,1.1,0.1,-6.56,4.34,-12.08,12:58:40.079,0,0.0,0,0.0,0.7,0.1
175.7,0.0,2.21,5.84,-11.01,-1.4,1013.4,40.33729,33.236876,-102.3,432016,1.1,174.5,2.62,-1.86,5.65,12:58:40.145,0,0.0,173.5,175.7,172.8,174.5
0.0,0.0,-1.1,-1.14,-12.28,-1.8,1014.3,40.338482,33.238059,-97.2,433184,1.6,-0.1,-6.64,-5.34,-6.46,12:58:40.195,0,0.0,0,0.0,-1.6,-0.1
0.0,0.0,3.59,2.09,-9.22,-2.0,1012.4,40.339579,33.239174,-91.8,434263,0.9,-0.2,10.13,0.21,4.06,12:58:40.245,0,0.0,0,0.0,-1.3,-0.2
46.2,0.0,3.9,0.39,-11.95,-1.9,1013.5,40.340809,33.240402,-97.4,435505,0.4,48.7,10.7,-6.42,0.05,12:58:40.296,0,0.0,51.9,46.2,51.8,48.7
115.5,1809.7,1.63,-1.21,-9.89,-12.4,822.4,40.341871,33.241458,-91.0,436542,0.8,112.4,0.28,5.78,-0.88,12:58:40.347,1770.3,1809.7,110.7,115.5,111.5,112.4
0.0,1559.0,2.44,-2.41,-9.5,-10.2,846.2,40.343103,33.242741,-94.5,437822,0.2,0.4,-10.19,3.73,0.3,12:58:40.409,1532.4,1559.0,0,0.0,0.1,0.4
4.8,1773.0,-1.16,-0.13,-7.89,-12.0,824.6,40.344363,33.24393,-93.2,439059,1.9,5.8,-13.56,4.69,-0.89,12:58:40.462,1749.7,1773.0,5.7,4.8,5.8,5.8
110.4,2470.4,2.71,-4.14,-10.67,-15.6,759.8,40.345518,33.245146,-89.2,440237,0.9,107.7,-4.84,-1.52,-4.5,12:58:40.511,2445.7,2470.4,107.6,110.4,107.0,107.7
0.0,2762.4,-0.4,1.19,-9.81,-18.2,731.9,40.34665,33.24623,-99.7,441366,1.1,-0.5,-5.52,1.56,-2.41,12:58:40.562,2763.0,2762.4,0,0.0,-0.3,-0.5
149.3,2758.6,2.11,-0.95,-10.39,-18.1,733.8,40.347965,33.247604,-88.2,442687,1.2,149.3,1.39,-2.83,-3.44,12:58:40.613,2749.1,2758.6,149.6,149.3,149.1,149.3
0.0,2080.3,-0.08,2.4,-8.41,-13.4,797.6,40.349398,33.248979,-102.8,444055,0.6,0.0,0.03,-4.72,-9.37,12:58:40.663,2049.8,2080.3,0,0.0,0.7,0.0
7.8,429.8,-2.09,1.22,-11.2,-4.1,967.6,40.350755,33.2504,-99.6,445449,1.1,8.2,1.73,-8.11,14.53,12:58:40.713,389.5,429.8,4.6,7.8,6.1,8.2
37.9,1155.0,5.65,-0.62,-9.09,-8.0,888.3,40.351925,33.251564,-85.5,446651,0.7,35.6,0.36,4.6,-0.7,12:58:40.779,1119.4,1155.0,33.5,37.9,32.4,35.6
0.0,2240.9,-0.98,-0.86,-12.24,-14.8,780.2,40.353133,33.252689,-99.2,447807,1.0,0.1,-0.27,-7.79,2.31,12:58:40.830,2227.6,2240.9,0,0.0,-0.4,0.1
140.9,2794.1,-8.09,3.43,-9.66,-18.3,728.1,40.354207,33.253835,-93.9,448924,0.0,141.5,6.22,-5.96,-4.11,12:58:40.879,2811.7,2794.1,144.8,140.9,144.2,141.5
0.0,2801.7,2.66,-0.84,-10.68,-17.8,729.1,40.355513,33.255098,-102.9,450197,1.6,-0.1,1.63,1.47,-6.35,12:58:40.930,2803.6,2801.7,0,0.0,1.2,-0.1
0.0,0.0,0.71,0.28,-9.2,-1.5,1013.3,40.357092,33.256695,-99.5,451804,1.5,0.3,-7.21,0.07,1.31,12:58:40.992,0,0.0,0,0.0,1.2,0.3
49.4,1422.0,-4.33,-1.3,-8.99,-10.5,859.3,40.35823,33.257821,-100.1,452913,1.8,47.2,-0.07,-2.15,-15.93,12:58:41.045,1410.5,1422.0,46.7,49.4,47.7,47.2
0.0,2173.3,-0.0,6.95,-9.45,-14.4,786.4,40.359397,33.259039,-89.1,454099,0.5,-0.4,3.11,-0.07,2.56,12:58:41.095,2149.3,2173.3,0,0.0,-1.6,-0.4
151.5,2698.7,3.18,1.65,-9.55,-17.5,737.7,40.360575,33.260183,-92.8,455270,0.2,151.0,-7.38,3.77,-5.77,12:58:41.146,2692.4,2698.7,152.5,151.5,153.0,151.0
9.0,1489.8,2.19,-3.12,-7.27,-10.5,846.2,40.361577,33.261175,-92.4,456273,0.6,8.3,4.63,1.75,-1.16,12:58:41.196,1529.0,1489.8,4.0,9.0,4.5,8.3
0.0,596.6,-3.14,-0.75,-9.52,-5.4,940.6,40.36277,33.262361,-89.3,457460,0.4,0.2,-2.61,1.09,6.22,12:58:41.247,631.6,596.6,0,0.0,2.0,0.2
130.2,2685.3,0.72,-0.51,-10.1,-17.2,740.7,40.364338,33.26395,-92.2,459045,1.5,127.9,-4.1,-1.9,0.72,12:58:41.311,2670.2,2685.3,124.8,130.2,124.7,127.9
0.1,558.4,-1.74,2.84,-10.71,-4.9,943.5,40.365266,33.264921,-99.8,459971,1.2,-0.2,-3.04,0.78,10.39,12:58:41.347,598.5,558.4,0,0.1,0.6,-0.2
0.9,0.0,2.66,-1.43,-10.49,-2.1,1013.2,40.366353,33.265953,-90.7,461043,1.8,0.9,4.51,-0.66,-2.71,12:58:41.413,0,0.0,2.6,0.9,2.3,0.9
7.9,1654.8,3.36,-2.65,-10.55,-12.1,830.6,40.367884,33.267486,-98.7,462570,0.3,7.3,6.96,-3.44,0.09,12:58:41.478,1686.0,1654.8,4.8,7.9,4.7,7.3
125.9,0.0,1.26,-3.38,-10.64,-1.4,1012.6,40.368858,33.268474,-103.8,463542,0.7,121.9,2.33,-2.66,-0.61,12:58:41.527,0,0.0,119.2,125.9,117.6,121.9
0.0,0.0,-0.27,-0.09,-10.11,-1.6,1013.0,40.36997,33.269575,-88.5,464669,0.1,0.6,-4.62,7.14,-1.24,12:58:41.579,0,0.0,0,0.0,1.4,0.6
1.3,0.0,-2.37,-4.12,-8.4,-1.4,1014.1,40.371011,33.270648,-97.7,465749,0.9,1.6,8.24,-1.36,7.88,12:58:41.628,0,0.0,1.0,1.3,-0.3,1.6
0.0,644.5,-0.57,-1.74,-10.92,-5.6,944.2,40.372096,33.271697,-87.3,466796,1.4,0.3,-11.39,7.73,4.99,12:58:41.678,600.4,644.5,0,0.0,1.6,0.3
117.4,1859.4,-0.19,0.66,-8.47,-12.9,816.0,40.373246,33.27288,-104.8,467954,1.5,114.5,0.59,4.83,8.65,12:58:41.730,1838.7,1859.4,111.0,117.4,110.6,114.5
41.1,0.0,0.48,-1.89,-10.59,-1.3,1013.3,40.374712,33.274309,-93.0,469414,1.8,44.1,-7.45,-6.32,5.47,12:58:41.795,0,0.0,49.4,41.1,48.6,44.1
0.0,0.0,1.95,2.35,-8.53,-2.1,1013.3,40.376031,33.275642,-94.0,470742,1.4,0.4,2.52,1.28,-2.91,12:58:41.845,0,0.0,0,0.0,0.9,0.4
0.0,0.0,-0.56,0.36,-9.06,-1.2,1012.5,40.377272,33.27686,-102.4,471970,1.8,0.2,-5.8,2.91,-3.14,12:58:41.895,0,0.0,0,0.0,-0.2,0.2
18.3,0.0,1.11,2.58,-10.08,-1.4,1013.3,40.378849,33.278451,-103.0,473543,0.7,16.8,1.14,-5.07,6.14,12:58:41.960,0,0.0,16.1,18.3,16.7,16.8
0.0,0.0,3.0,1.67,-9.72,-2.2,1013.0,40.379958,33.279533,-85.6,474653,0.3,0.1,12.1,6.84,-2.14,12:58:42.013,0,0.0,0,0.0,0.8,0.1
170.0,0.0,0.79,4.03,-9.74,-1.5,1013.0,40.381219,33.280778,-98.4,475898,1.5,171.0,1.74,-2.88,-7.17,12:58:42.072,0,0.0,171.3,170.0,171.8,171.0
0.0,0.0,2.01,2.64,-11.63,-1.3,1012.8,40.382746,33.282337,-101.8,477450,0.3,0.1,-3.93,10.35,-2.4,12:58:42.136,0,0.0,0,0.0,0.6,0.1
0.3,342.3,-1.18,-0.11,-10.03,-3.4,968.2,40.384079,33.283714,-93.3,478805,1.1,-0.3,-3.48,-4.38,-0.25,12:58:42.187,382.2,342.3,0,0.3,-0.2,-0.3
0.0,0.0,-0.9,-1.08,-8.18,-1.9,1013.8,40.385309,33.284872,-100.4,480008,0.7,-0.6,1.48,-3.88,-0.46,12:58:42.231,0,0.0,0,0.0,-1.6,-0.6
0.0,0.0,1.78,-3.87,-8.94,-1.7,1012.9,40.386497,33.286084,-89.5,481200,1.5,-0.3,5.75,-3.73,9.44,12:58:42.296,0,0.0,0,0.0,-1.6,-0.3
168.0,0.0,1.46,-2.86,-10.5,-1.4,1012.7,40.38763,33.28721,-93.4,482312,2.0,165.7,-2.14,-0.28,-1.74,12:58:42.346,0,0.0,162.1,168.0,161.0,165.7
0.0,0.0,1.55,-1.68,-8.8,-1.5,1012.1,40.388808,33.2884,-103.3,483493,0.1,-0.3,-2.24,1.79,3.93,12:58:42.396,0,0.0,0,0.0,-0.4,-0.3
0.0,0.0,-0.25,-4.62,-11.04,-1.8,1013.8,40.389842,33.289484,-85.6,484572,1.7,-0.4,-7.39,5.42,-1.37,12:58:42.446,0,0.0,0,0.0,-0.2,-0.4
52.1,0.0,3.25,0.79,-9.77,-0.8,1013.2,40.391077,33.290713,-93.8,485784,0.7,53.8,-2.02,4.16,5.72,12:58:42.498,0,0.0,57.3,52.1,58.2,53.8
77.6,1143.4,2.27,0.22,-9.25,-7.8,890.8,40.392187,33.291762,-103.9,486864,0.5,73.9,-1.57,4.3,5.38,12:58:42.548,1097.3,1143.4,69.5,77.6,70.0,73.9
0.0,2582.5,0.12,-0.82,-7.65,-17.4,747.8,40.393291,33.292898,-97.9,487971,1.7,-0.5,0.69,-5.04,-7.37,12:58:42.597,2582.8,2582.5,0,0.0,-0.4,-0.5
0.2,0.0,1.03,-0.2,-10.92,-1.8,1012.9,40.394776,33.294416,-93.1,489484,1.8,0.4,-6.32,-10.11,4.71,12:58:42.661,0,0.0,0,0.2,1.6,0.4
10.7,348.1,0.75,0.27,-9.37,-3.2,977.6,40.396025,33.295589,-98.1,490693,0.1,9.3,-1.81,5.05,1.61,12:58:42.696,307.2,348.1,6.9,10.7,6.1,9.3
0.0,2199.1,4.85,-1.6,-11.75,-14.8,784.0,40.397102,33.296709,-97.8,491795,1.1,0.4,-3.35,-1.01,-3.38,12:58:42.762,2179.7,2199.1,0,0.0,0.8,0.4
151.1,2608.5,-0.41,-0.47,-9.18,-16.8,747.1,40.398302,33.297914,-86.5,492991,1.9,151.0,-7.11,-4.53,1.32,12:58:42.811,2594.6,2608.5,156.1,151.1,155.8,151.0
0.0,2603.8,-2.11,4.82,-7.94,-17.1,746.4,40.399419,33.298976,-99.4,494101,1.8,0.1,6.03,2.39,-8.26,12:58:42.862,2607.2,2603.8,0,0.0,0.5,0.1
0.0,720.0,0.21,-0.86,-9.13,-6.3,928.3,40.400459,33.300086,-86.2,495169,2.0,0.0,-7.86,-0.34,4.65,12:58:42.912,751.5,720.0,0,0.0,1.2,0.0
0.0,0.0,4.01,-2.7,-9.63,-1.5,1013.5,40.401606,33.301207,-94.9,496319,1.0,-0.1,-0.3,-8.05,-4.65,12:58:42.962,0,0.0,0,0.0,-0.7,-0.1
55.6,0.0,-0.62,-3.85,-11.0,-1.9,1012.7,40.402852,33.302428,-87.0,497541,1.2,53.2,5.97,1.66,-7.64,12:58:43.013,0,0.0,50.4,55.6,50.3,53.2
4.6,0.0,-5.12,1.7,-7.95,-1.7,1012.4,40.404022,33.303615,-88.3,498718,0.7,3.3,-2.9,-2.37,-3.29,12:58:43.062,0,0.0,1.0,4.6,0.3,3.3
0.0,2727.2,-1.0,0.01,-9.89,-17.7,733.3,40.405703,33.305304,-103.9,500411,1.1,0.0,-1.96,-7.13,8.67,12:58:43.128,2744.2,2727.2,0,0.0,-0.9,0.0
0.0,2468.2,0.26,1.67,-8.05,-16.1,756.5,40.406898,33.306509,-104.6,501616,0.7,-0.3,-6.24,-1.02,-2.54,12:58:43.163,2480.7,2468.2,0,0.0,-2.0,-0.3
106.5,1771.8,-5.05,0.35,-8.9,-12.4,817.3,40.408095,33.307692,-97.8,502793,1.4,109.7,1.36,-2.36,-2.05,12:58:43.228,1814.0,1771.8,110.4,106.5,110.0,109.7
0.0,2434.4,2.27,-0.12,-9.14,-16.1,758.4,40.409401,33.309028,-89.9,504124,0.4,-0.0,10.27,-2.59,6.97,12:58:43.279,2450.8,2434.4,0,0.0,-0.4,-0.0
146.3,2795.3,-1.39,-0.26,-9.07,-18.6,728.5,40.410764,33.310392,-97.2,505493,0.8,147.2,-1.94,2.55,-3.41,12:58:43.330,2799.0,2795.3,150.5,146.3,150.0,147.2
10.8,1082.8,-3.32,-1.08,-10.9,-8.0,889.8,40.411807,33.311407,-100.8,506506,0.5,11.0,16.24,2.5,-0.36,12:58:43.379,1103.0,1082.8,14.3,10.8,14.1,11.0
8.4,0.0,1.83,-1.33,-6.4,-1.3,1013.5,40.413009,33.312608,-93.9,507679,1.7,5.9,3.73,0.85,-3.8,12:58:43.430,0,0.0,5.0,8.4,5.7,5.9
143.8,2794.1,-0.15,0.21,-10.98,-18.2,729.1,40.414557,33.314165,-104.4,509269,0.6,142.1,-0.66,5.0,-7.05,12:58:43.480,2807.7,2794.1,141.7,143.8,140.9,142.1
0.0,2567.1,-2.01,0.04,-11.66,-17.2,746.9,40.415744,33.315345,-86.3,510428,0.7,-0.1,-7.96,2.26,8.12,12:58:43.546,2588.5,2567.1,0,0.0,0.3,-0.1
59.6,1762.1,-3.57,2.06,-7.97,-11.7,822.0,40.416892,33.316501,-103.6,511590,0.3,62.0,-4.87,-3.59,-5.45,12:58:43.596,1778.1,1762.1,66.0,59.6,65.8,62.0
0.0,2280.7,3.48,-0.88,-9.87,-15.3,772.1,40.418184,33.317811,-89.5,512900,1.1,-0.0,-2.54,-0.26,8.2,12:58:43.645,2308.3,2280.7,0,0.0,0.2,-0.0
0.0,2774.4,2.63,1.4,-10.16,-18.1,730.9,40.419523,33.319138,-88.1,514257,0.6,0.2,-3.76,0.97,-4.24,12:58:43.698,2779.2,2774.4,0,0.0,-0.2,0.2
148.9,2797.3,3.39,-0.21,-7.21,-18.9,728.4,40.420822,33.320462,-101.3,515519,0.1,148.3,1.83,2.2,-6.75,12:58:43.756,2808.5,2797.3,147.8,148.9,149.1,148.3
0.0,2806.6,0.01,-0.71,-10.89,-18.2,726.5,40.422099,33.32167,-95.4,516782,1.0,0.3,-6.91,-0.76,-1.86,12:58:43.814,2817.9,2806.6,0,0.0,0.5,0.3
100.6,2421.4,-2.08,2.47,-9.72,-16.0,760.3,40.423258,33.322832,-104.2,517945,1.3,102.7,-13.54,3.33,0.7,12:58:43.861,2437.7,2421.4,105.8,100.6,105.3,102.7
0.0,1582.4,1.76,-3.07,-11.41,-10.8,842.3,40.424784,33.324414,-103.4,519501,1.6,0.4,0.09,0.77,6.34,12:58:43.931,1567.4,1582.4,0,0.0,-0.2,0.4
9.9,1273.1,-1.25,2.18,-11.24,-8.2,876.6,40.426069,33.325691,-102.1,520783,1.5,10.5,3.32,5.18,-2.62,12:58:43.982,1230.3,1273.1,10.5,9.9,11.8,10.5
0.0,0.0,-2.68,-5.36,-10.11,-1.9,1013.3,40.427546,33.327189,-88.7,522244,1.4,-0.2,1.48,-4.04,-3.89,12:58:44.029,0,0.0,0,0.0,0.2,-0.2
73.7,0.0,-3.81,-2.68,-9.54,-1.4,1013.6,40.42893,33.328559,-97.5,523644,0.6,72.8,-5.15,1.24,2.48,12:58:44.104,0,0.0,72.9,73.7,71.4,72.8
4.3,352.7,-0.25,0.07,-12.93,-3.9,965.2,40.430585,33.330211,-88.9,525301,2.0,4.1,-11.21,-1.6,-1.96,12:58:44.168,407.1,352.7,8.0,4.3,5.9,4.1
0.0,1740.7,2.17,0.64,-10.12,-12.2,823.0,40.431986,33.331557,-102.6,526667,0.9,-0.6,-0.66,-3.03,-2.2,12:58:44.232,1771.1,1740.7,0,0.0,-1.6,-0.6
90.5,2177.3,-0.65,-1.59,-11.5,-14.5,786.9,40.43353,33.333138,-95.3,528239,1.2,87.8,4.22,-0.97,5.86,12:58:44.295,2153.2,2177.3,83.0,90.5,82.6,87.8
70.1,0.0,-2.39,2.43,-10.01,-1.7,1013.2,40.435121,33.334746,-103.8,529818,2.0,70.7,-11.63,2.92,0.81,12:58:44.343,0,0.0,72.0,70.1,70.0,70.7
61.9,889.4,-0.08,1.53,-8.49,-6.6,915.8,40.436144,33.335772,-90.3,530866,1.3,57.9,-3.15,-3.95,0.09,12:58:44.406,859.6,889.4,56.7,61.9,58.3,57.9
0.0,2784.9,-0.4,1.55,-10.51,-18.9,729.8,40.437123,33.336726,-104.3,531853,1.8,0.4,0.78,4.69,-1.62,12:58:44.464,2793.2,2784.9,0,0.0,1.6,0.4
0.0,2149.5,1.69,-1.65,-9.83,-13.9,789.5,40.438562,33.338172,-91.9,533269,1.6,0.5,1.48,-0.99,-2.44,12:58:44.518,2125.5,2149.5,0,0.0,0.8,0.5
119.5,2583.3,-0.45,1.37,-10.1,-16.4,748.7,40.43975,33.339375,-101.7,534466,1.7,116.8,0.55,-6.03,2.82,12:58:44.569,2571.9,2583.3,114.7,119.5,114.6,116.8
0.0,2733.3,6.79,1.64,-8.42,-18.3,733.6,40.440901,33.340529,-97.0,535600,2.0,-0.4,1.37,9.22,-0.22,12:58:44.617,2744.5,2733.3,0,0.0,0.2,-0.4
150.0,2624.5,1.19,-1.82,-9.56,-16.9,743.5,40.442258,33.341925,-101.7,536971,1.7,149.7,0.05,7.97,5.85,12:58:44.661,2627.5,2624.5,151.5,150.0,151.4,149.7
0.0,1615.2,-0.86,2.38,-9.93,-11.1,842.4,40.443602,33.343243,-104.2,538348,0.2,0.1,5.23,2.69,1.94,12:58:44.728,1584.6,1615.2,0,0.0,0.7,0.1
0.5,0.2,2.23,-0.94,-9.98,-1.7,1013.7,40.444991,33.344669,-96.8,539742,1.9,-0.6,3.3,-3.02,-8.89,12:58:44.780,0,0.2,0,0.5,-1.9,-0.6
45.7,1359.0,-3.42,-1.8,-11.2,-9.4,866.1,40.446182,33.345752,-102.0,540883,0.6,43.0,-0.77,-8.13,-9.04,12:58:44.835,1333.1,1359.0,41.6,45.7,42.0,43.0
0.0,49.8,2.64,2.34,-11.04,-2.1,1011.3,40.447556,33.347154,-89.5,542237,0.2,-0.3,1.8,4.74,4.28,12:58:44.883,16.5,49.8,0,0.0,-0.9,-0.3
132.9,2180.3,2.18,-3.02,-9.29,-14.4,785.2,40.448672,33.348211,-87.9,543319,1.4,129.9,-0.28,0.37,0.03,12:58:44.950,2165.0,2180.3,128.5,132.9,127.6,129.9
0.0,2309.3,1.04,0.36,-10.48,-15.4,775.7,40.44988,33.349438,-103.2,544559,2.0,0.0,-1.05,8.42,-8.7,12:58:45.009,2277.8,2309.3,0,0.0,0.8,0.0
0.0,2800.0,-2.48,1.02,-10.15,-18.4,728.8,40.450994,33.35062,-99.9,545708,0.8,-0.4,-2.04,1.6,5.74,12:58:45.060,2806.3,2800.0,0,0.0,-0.3,-0.4
120.5,2583.3,0.87,-1.4,-10.83,-16.8,749.1,40.452346,33.351965,-100.4,547033,0.9,118.7,-1.42,6.26,7.16,12:58:45.109,2566.2,2583.3,117.6,120.5,119.3,118.7
0.0,2756.3,2.76,1.78,-10.21,-17.9,731.9,40.453519,33.353114,-104.0,548245,1.1,0.5,-2.69,1.54,-3.47,12:58:45.167,2760.0,2756.3,0,0.0,2.0,0.5
4.7,6.8,6.2,-2.48,-9.52,-1.4,1013.9,40.455086,33.354653,-94.2,549783,0.7,1.2,8.18,-4.01,-0.76,12:58:45.230,0,6.8,0,4.7,-0.6,1.2
82.7,0.0,-2.0,-1.26,-10.73,-1.9,1013.1,40.456437,33.356053,-97.4,551148,1.2,86.4,4.84,1.53,1.8,12:58:45.277,0,0.0,89.4,82.7,88.9,86.4
0.0,2796.8,0.42,-1.01,-8.24,-18.4,729.7,40.457308,33.356893,-93.9,551993,1.5,0.3,2.15,0.28,-5.78,12:58:45.343,2784.5,2796.8,0,0.0,0.2,0.3
0.0,0.0,3.6,0.04,-8.34,-1.4,1012.6,40.457974,33.357596,-87.5,552680,0.1,-0.2,5.98,4.4,-7.07,12:58:45.395,0,0.0,0,0.0,-0.1,-0.2
